{
  "resourceType": "Bundle",
  "id": "bundle-marfan-complete",
  "type": "transaction",
  "timestamp": "2024-12-15T14:00:00Z",
  "entry": [
    {
      "fullUrl": "urn:uuid:3f7e8b2c-9d1a-4e5f-b6c8-2a9f5e3d7c4b",
      "resource": {
        "resourceType": "Patient",
        "id": "patient-marfan-001",
        "identifier": [
          {
            "system": "https://www.medizininformatik-initiative.de/fhir/sid/patient-id",
            "value": "MRF-2024-001"
          }
        ],
        "gender": "male",
        "birthDate": "2005-01-01"
      },
      "request": {
        "method": "POST",
        "url": "Patient"
      }
    },
    {
      "fullUrl": "urn:uuid:a4b5c6d7-e8f9-0a1b-2c3d-4e5f6g7h8i9j",
      "resource": {
        "resourceType": "Condition",
        "id": "condition-marfan-suspected",
        "meta": {
          "profile": [
            "https://www.medizininformatik-initiative.de/fhir/ext/modul-seltene/StructureDefinition/mii-pr-se-clinical-diagnosis"
          ]
        },
        "code": {
          "coding": [
            {
              "system": "http://fhir.de/CodeSystem/bfarm/icd-10-gm",
              "code": "Q87.4",
              "display": "Marfan-Syndrom",
              "version": "2024"
            },
            {
              "system": "http://snomed.info/sct",
              "code": "19346006",
              "display": "Marfan syndrome"
            },
            {
              "system": "http://www.orpha.net",
              "code": "558",
              "display": "Marfan syndrome"
            }
          ],
          "text": "Verdacht auf Marfan-Syndrom"
        },
        "clinicalStatus": {
          "coding": [
            {
              "code": "active",
              "system": "http://terminology.hl7.org/CodeSystem/condition-clinical"
            }
          ]
        },
        "verificationStatus": {
          "coding": [
            {
              "code": "provisional",
              "system": "http://terminology.hl7.org/CodeSystem/condition-ver-status"
            }
          ]
        },
        "category": [
          {
            "coding": [
              {
                "code": "encounter-diagnosis",
                "system": "http://terminology.hl7.org/CodeSystem/condition-category"
              }
            ]
          }
        ],
        "subject": {
          "reference": "Patient/patient-marfan-001"
        },
        "extension": [
          {
            "url": "http://hl7.org/fhir/StructureDefinition/condition-assertedDate",
            "valueDateTime": "2024-12-10"
          }
        ],
        "recordedDate": "2024-12-10",
        "note": [
          {
            "text": "Verdacht auf Marfan-Syndrom aufgrund klinischer Präsentation"
          }
        ]
      },
      "request": {
        "method": "POST",
        "url": "Condition"
      }
    },
    {
      "fullUrl": "urn:uuid:b5c6d7e8-f9a0-1b2c-3d4e-5f6g7h8i9j0k",
      "resource": {
        "resourceType": "Condition",
        "id": "condition-marfan-clinical",
        "meta": {
          "profile": [
            "https://www.medizininformatik-initiative.de/fhir/ext/modul-seltene/StructureDefinition/mii-pr-se-clinical-diagnosis"
          ]
        },
        "code": {
          "coding": [
            {
              "system": "http://fhir.de/CodeSystem/bfarm/icd-10-gm",
              "code": "Q87.4",
              "display": "Marfan-Syndrom",
              "version": "2024"
            },
            {
              "system": "http://snomed.info/sct",
              "code": "19346006",
              "display": "Marfan syndrome"
            },
            {
              "system": "http://www.orpha.net",
              "code": "558",
              "display": "Marfan syndrome"
            },
            {
              "system": "http://human-phenotype-ontology.org",
              "code": "HP:0008138",
              "display": "Marfan syndrome"
            }
          ],
          "text": "Marfan-Syndrom"
        },
        "clinicalStatus": {
          "coding": [
            {
              "code": "active",
              "system": "http://terminology.hl7.org/CodeSystem/condition-clinical"
            }
          ]
        },
        "verificationStatus": {
          "coding": [
            {
              "code": "confirmed",
              "system": "http://terminology.hl7.org/CodeSystem/condition-ver-status"
            }
          ]
        },
        "category": [
          {
            "coding": [
              {
                "code": "encounter-diagnosis",
                "system": "http://terminology.hl7.org/CodeSystem/condition-category"
              }
            ]
          }
        ],
        "subject": {
          "reference": "Patient/patient-marfan-001"
        },
        "extension": [
          {
            "url": "http://hl7.org/fhir/StructureDefinition/condition-assertedDate",
            "valueDateTime": "2024-12-15"
          }
        ],
        "recordedDate": "2024-12-15",
        "encounter": {
          "reference": "Encounter/encounter-cardiology"
        },
        "evidence": [
          {
            "code": [
              {
                "coding": [
                  {
                    "code": "HP:0002616",
                    "system": "http://human-phenotype-ontology.org",
                    "display": "Aortic root aneurysm"
                  }
                ]
              }
            ],
            "detail": [
              {
                "reference": "Observation/symptom-aortic-root"
              }
            ]
          },
          {
            "code": [
              {
                "coding": [
                  {
                    "code": "HP:0001659",
                    "system": "http://human-phenotype-ontology.org",
                    "display": "Aortic regurgitation"
                  }
                ]
              }
            ],
            "detail": [
              {
                "reference": "Observation/symptom-aortic-regurg"
              }
            ]
          },
          {
            "code": [
              {
                "coding": [
                  {
                    "code": "HP:0001653",
                    "system": "http://human-phenotype-ontology.org",
                    "display": "Mitral regurgitation"
                  }
                ]
              }
            ],
            "detail": [
              {
                "reference": "Observation/symptom-mitral-regurg"
              }
            ]
          },
          {
            "code": [
              {
                "coding": [
                  {
                    "code": "HP:0000098",
                    "system": "http://human-phenotype-ontology.org",
                    "display": "Tall stature"
                  }
                ]
              }
            ],
            "detail": [
              {
                "reference": "Observation/observation-height-001"
              }
            ]
          },
          {
            "code": [
              {
                "coding": [
                  {
                    "code": "HP:0100559",
                    "system": "http://human-phenotype-ontology.org",
                    "display": "Lower limb asymmetry"
                  }
                ]
              }
            ],
            "detail": [
              {
                "reference": "Observation/observation-leg-asymmetry"
              }
            ]
          },
          {
            "code": [
              {
                "coding": [
                  {
                    "code": "HP:0100749",
                    "system": "http://human-phenotype-ontology.org",
                    "display": "Chest pain"
                  }
                ]
              }
            ],
            "detail": [
              {
                "reference": "Observation/symptom-chest-pain"
              }
            ]
          }
        ],
        "note": [
          {
            "text": "Marfan-Syndrom klinisch diagnostiziert basierend auf kardialen Befunden, Skelettmerkmalen und ophthalmologischer Manifestation"
          }
        ]
      },
      "request": {
        "method": "POST",
        "url": "Condition"
      }
    },
    {
      "fullUrl": "urn:uuid:c6d7e8f9-a0b1-2c3d-4e5f-6g7h8i9j0k1l",
      "resource": {
        "resourceType": "Condition",
        "id": "condition-marfan-genetic",
        "meta": {
          "profile": [
            "https://www.medizininformatik-initiative.de/fhir/ext/modul-seltene/StructureDefinition/mii-pr-se-genetic-diagnosis"
          ]
        },
        "category": [
          {
            "coding": [
              {
                "code": "782964007",
                "system": "http://snomed.info/sct",
                "display": "Genetic disease"
              }
            ]
          }
        ],
        "code": {
          "coding": [
            {
              "system": "http://fhir.de/CodeSystem/bfarm/icd-10-gm",
              "code": "Q87.4",
              "display": "Marfan-Syndrom",
              "version": "2024"
            },
            {
              "system": "http://snomed.info/sct",
              "code": "19346006",
              "display": "Marfan syndrome"
            },
            {
              "system": "http://www.orpha.net",
              "code": "558",
              "display": "Marfan syndrome"
            },
            {
              "system": "http://omim.org",
              "code": "154700",
              "display": "Marfan syndrome"
            }
          ],
          "text": "Marfan-Syndrom - genetisch bestätigt"
        },
        "clinicalStatus": {
          "coding": [
            {
              "code": "active",
              "system": "http://terminology.hl7.org/CodeSystem/condition-clinical"
            }
          ]
        },
        "verificationStatus": {
          "coding": [
            {
              "code": "confirmed",
              "system": "http://terminology.hl7.org/CodeSystem/condition-ver-status"
            }
          ]
        },
        "subject": {
          "reference": "Patient/patient-marfan-001"
        },
        "extension": [
          {
            "url": "http://hl7.org/fhir/StructureDefinition/condition-assertedDate",
            "valueDateTime": "2024-12-20"
          }
        ],
        "recordedDate": "2024-12-20",
        "evidence": [
          {
            "code": [
              {
                "coding": [
                  {
                    "code": "106221001",
                    "system": "http://snomed.info/sct",
                    "display": "Genetic finding"
                  }
                ]
              }
            ],
            "detail": [
              {
                "reference": "Observation/variant-fbn1-001"
              }
            ]
          }
        ],
        "note": [
          {
            "text": "FBN1-Mutation c.3217G>A (p.Gly1073Arg) nachgewiesen, krankheitsursächlich. Genetische Diagnose existiert parallel zur klinischen Diagnose."
          }
        ]
      },
      "request": {
        "method": "POST",
        "url": "Condition"
      }
    },
    {
      "fullUrl": "urn:uuid:d7e8f9a0-b1c2-3d4e-5f6g-7h8i9j0k1l2m",
      "resource": {
        "resourceType": "Condition",
        "id": "condition-cataract",
        "meta": {
          "profile": [
            "https://www.medizininformatik-initiative.de/fhir/ext/modul-seltene/StructureDefinition/mii-pr-se-clinical-diagnosis"
          ]
        },
        "code": {
          "coding": [
            {
              "system": "http://fhir.de/CodeSystem/bfarm/icd-10-gm",
              "code": "H26.9",
              "display": "Katarakt, nicht näher bezeichnet",
              "version": "2024"
            },
            {
              "system": "http://snomed.info/sct",
              "code": "193570009",
              "display": "Cataract"
            },
            {
              "system": "http://human-phenotype-ontology.org",
              "code": "HP:0000518",
              "display": "Cataract"
            }
          ],
          "text": "Katarakt bilateral"
        },
        "clinicalStatus": {
          "coding": [
            {
              "code": "resolved",
              "system": "http://terminology.hl7.org/CodeSystem/condition-clinical"
            }
          ]
        },
        "verificationStatus": {
          "coding": [
            {
              "code": "confirmed",
              "system": "http://terminology.hl7.org/CodeSystem/condition-ver-status"
            }
          ]
        },
        "category": [
          {
            "coding": [
              {
                "code": "encounter-diagnosis",
                "system": "http://terminology.hl7.org/CodeSystem/condition-category"
              }
            ]
          }
        ],
        "subject": {
          "reference": "Patient/patient-marfan-001"
        },
        "extension": [
          {
            "url": "http://hl7.org/fhir/StructureDefinition/condition-assertedDate",
            "valueDateTime": "2024-10-15"
          }
        ],
        "recordedDate": "2024-10-15",
        "encounter": {
          "reference": "Encounter/encounter-ophthalmology"
        },
        "abatementDateTime": "2024-11-12",
        "evidence": [
          {
            "code": [
              {
                "coding": [
                  {
                    "code": "HP:0000518",
                    "system": "http://human-phenotype-ontology.org",
                    "display": "Cataract"
                  }
                ]
              }
            ],
            "detail": [
              {
                "reference": "Observation/symptom-cataract"
              }
            ]
          }
        ],
        "note": [
          {
            "text": "Katarakt bilateral, operativ versorgt"
          }
        ]
      },
      "request": {
        "method": "POST",
        "url": "Condition"
      }
    },
    {
      "fullUrl": "urn:uuid:e8f9a0b1-c2d3-4e5f-6g7h-8i9j0k1l2m3n",
      "resource": {
        "resourceType": "Observation",
        "id": "observation-height-001",
        "status": "final",
        "category": [
          {
            "coding": [
              {
                "code": "vital-signs",
                "system": "http://terminology.hl7.org/CodeSystem/observation-category"
              }
            ]
          }
        ],
        "code": {
          "coding": [
            {
              "code": "8302-2",
              "system": "http://loinc.org",
              "display": "Body height"
            }
          ]
        },
        "subject": {
          "reference": "Patient/patient-marfan-001"
        },
        "effectiveDateTime": "2024-12-15",
        "valueQuantity": {
          "value": 213,
          "code": "cm",
          "system": "http://unitsofmeasure.org",
          "unit": "cm"
        },
        "interpretation": [
          {
            "coding": [
              {
                "code": "H",
                "system": "http://terminology.hl7.org/CodeSystem/v3-ObservationInterpretation",
                "display": "High"
              }
            ]
          }
        ],
        "bodySite": {
          "coding": [
            {
              "code": "38266002",
              "system": "http://snomed.info/sct",
              "display": "Entire body"
            }
          ]
        },
        "component": [
          {
            "code": {
              "coding": [
                {
                  "code": "HP:0000098",
                  "system": "http://human-phenotype-ontology.org",
                  "display": "Tall stature"
                }
              ]
            },
            "valueString": "Pathologischer Hochwuchs >99. Perzentile"
          }
        ]
      },
      "request": {
        "method": "POST",
        "url": "Observation"
      }
    },
    {
      "fullUrl": "urn:uuid:f9a0b1c2-d3e4-5f6g-7h8i-9j0k1l2m3n4o",
      "resource": {
        "resourceType": "Observation",
        "id": "observation-leg-asymmetry",
        "status": "final",
        "category": [
          {
            "coding": [
              {
                "code": "exam",
                "system": "http://terminology.hl7.org/CodeSystem/observation-category"
              }
            ]
          }
        ],
        "code": {
          "coding": [
            {
              "code": "707738004",
              "system": "http://snomed.info/sct",
              "display": "Leg length discrepancy"
            }
          ]
        },
        "subject": {
          "reference": "Patient/patient-marfan-001"
        },
        "effectiveDateTime": "2024-12-15",
        "valueCodeableConcept": {
          "coding": [
            {
              "code": "7771000",
              "system": "http://snomed.info/sct",
              "display": "Left"
            }
          ]
        },
        "interpretation": [
          {
            "coding": [
              {
                "code": "A",
                "system": "http://terminology.hl7.org/CodeSystem/v3-ObservationInterpretation",
                "display": "Abnormal"
              }
            ]
          }
        ],
        "bodySite": {
          "coding": [
            {
              "code": "30021000",
              "system": "http://snomed.info/sct",
              "display": "Lower leg structure"
            }
          ]
        },
        "component": [
          {
            "code": {
              "coding": [
                {
                  "code": "HP:0100559",
                  "system": "http://human-phenotype-ontology.org",
                  "display": "Lower limb asymmetry"
                }
              ]
            },
            "valueString": "Rechtes Bein verkürzt"
          }
        ]
      },
      "request": {
        "method": "POST",
        "url": "Observation"
      }
    },
    {
      "fullUrl": "urn:uuid:a0b1c2d3-e4f5-6g7h-8i9j-0k1l2m3n4o5p",
      "resource": {
        "resourceType": "Observation",
        "id": "symptom-chest-pain",
        "status": "final",
        "category": [
          {
            "coding": [
              {
                "code": "exam",
                "system": "http://terminology.hl7.org/CodeSystem/observation-category"
              }
            ]
          }
        ],
        "code": {
          "coding": [
            {
              "code": "HP:0100749",
              "system": "http://human-phenotype-ontology.org",
              "display": "Chest pain"
            },
            {
              "code": "29857009",
              "system": "http://snomed.info/sct",
              "display": "Chest pain"
            }
          ],
          "text": "Thoraxschmerzen"
        },
        "subject": {
          "reference": "Patient/patient-marfan-001"
        },
        "effectiveDateTime": "2024-12-15",
        "valueCodeableConcept": {
          "coding": [
            {
              "code": "52101004",
              "system": "http://snomed.info/sct",
              "display": "Present"
            }
          ]
        },
        "interpretation": [
          {
            "coding": [
              {
                "code": "A",
                "system": "http://terminology.hl7.org/CodeSystem/v3-ObservationInterpretation",
                "display": "Abnormal"
              }
            ]
          }
        ]
      },
      "request": {
        "method": "POST",
        "url": "Observation"
      }
    },
    {
      "fullUrl": "urn:uuid:b1c2d3e4-f5g6-7h8i-9j0k-1l2m3n4o5p6q",
      "resource": {
        "resourceType": "Observation",
        "id": "symptom-cataract",
        "status": "final",
        "category": [
          {
            "coding": [
              {
                "code": "exam",
                "system": "http://terminology.hl7.org/CodeSystem/observation-category"
              }
            ]
          }
        ],
        "code": {
          "coding": [
            {
              "code": "HP:0000518",
              "system": "http://human-phenotype-ontology.org",
              "display": "Cataract"
            },
            {
              "code": "193570009",
              "system": "http://snomed.info/sct",
              "display": "Cataract"
            }
          ],
          "text": "Katarakt bilateral"
        },
        "subject": {
          "reference": "Patient/patient-marfan-001"
        },
        "effectiveDateTime": "2024-10-15",
        "valueCodeableConcept": {
          "coding": [
            {
              "code": "51440002",
              "system": "http://snomed.info/sct",
              "display": "Bilateral"
            }
          ]
        },
        "interpretation": [
          {
            "coding": [
              {
                "code": "A",
                "system": "http://terminology.hl7.org/CodeSystem/v3-ObservationInterpretation",
                "display": "Abnormal"
              }
            ]
          }
        ],
        "bodySite": {
          "coding": [
            {
              "code": "81745001",
              "system": "http://snomed.info/sct",
              "display": "Eye structure"
            }
          ]
        }
      },
      "request": {
        "method": "POST",
        "url": "Observation"
      }
    },
    {
      "fullUrl": "urn:uuid:c2d3e4f5-g6h7-8i9j-0k1l-2m3n4o5p6q7r",
      "resource": {
        "resourceType": "Observation",
        "id": "symptom-aortic-root",
        "status": "final",
        "category": [
          {
            "coding": [
              {
                "code": "imaging",
                "system": "http://terminology.hl7.org/CodeSystem/observation-category"
              }
            ]
          }
        ],
        "code": {
          "coding": [
            {
              "code": "HP:0002616",
              "system": "http://human-phenotype-ontology.org",
              "display": "Aortic root aneurysm"
            },
            {
              "code": "60234000",
              "system": "http://snomed.info/sct",
              "display": "Aortic root dilatation"
            }
          ],
          "text": "Aortenwurzeldilatation"
        },
        "subject": {
          "reference": "Patient/patient-marfan-001"
        },
        "effectiveDateTime": "2024-12-15",
        "valueQuantity": {
          "value": 48,
          "code": "mm",
          "system": "http://unitsofmeasure.org",
          "unit": "mm"
        },
        "interpretation": [
          {
            "coding": [
              {
                "code": "H",
                "system": "http://terminology.hl7.org/CodeSystem/v3-ObservationInterpretation",
                "display": "High"
              }
            ]
          }
        ],
        "referenceRange": [
          {
            "high": {
              "value": 40,
              "unit": "mm"
            },
            "text": "Normwert <40mm"
          }
        ]
      },
      "request": {
        "method": "POST",
        "url": "Observation"
      }
    },
    {
      "fullUrl": "urn:uuid:d3e4f5g6-h7i8-9j0k-1l2m-3n4o5p6q7r8s",
      "resource": {
        "resourceType": "Observation",
        "id": "symptom-aortic-regurg",
        "status": "final",
        "category": [
          {
            "coding": [
              {
                "code": "imaging",
                "system": "http://terminology.hl7.org/CodeSystem/observation-category"
              }
            ]
          }
        ],
        "code": {
          "coding": [
            {
              "code": "HP:0001659",
              "system": "http://human-phenotype-ontology.org",
              "display": "Aortic regurgitation"
            },
            {
              "code": "60234000",
              "system": "http://snomed.info/sct",
              "display": "Aortic valve regurgitation"
            }
          ],
          "text": "Aortenklappeninsuffizienz"
        },
        "subject": {
          "reference": "Patient/patient-marfan-001"
        },
        "effectiveDateTime": "2024-12-15",
        "valueCodeableConcept": {
          "coding": [
            {
              "code": "838545002",
              "system": "http://snomed.info/sct",
              "display": "Moderate aortic valve regurgitation"
            }
          ],
          "text": "Aortenklappeninsuffizienz Grad II"
        },
        "interpretation": [
          {
            "coding": [
              {
                "code": "A",
                "system": "http://terminology.hl7.org/CodeSystem/v3-ObservationInterpretation",
                "display": "Abnormal"
              }
            ]
          }
        ]
      },
      "request": {
        "method": "POST",
        "url": "Observation"
      }
    },
    {
      "fullUrl": "urn:uuid:e4f5g6h7-i8j9-0k1l-2m3n-4o5p6q7r8s9t",
      "resource": {
        "resourceType": "Observation",
        "id": "symptom-mitral-regurg",
        "status": "final",
        "category": [
          {
            "coding": [
              {
                "code": "imaging",
                "system": "http://terminology.hl7.org/CodeSystem/observation-category"
              }
            ]
          }
        ],
        "code": {
          "coding": [
            {
              "code": "HP:0001653",
              "system": "http://human-phenotype-ontology.org",
              "display": "Mitral regurgitation"
            },
            {
              "code": "48724000",
              "system": "http://snomed.info/sct",
              "display": "Mitral valve regurgitation"
            }
          ],
          "text": "Mitralklappeninsuffizienz"
        },
        "subject": {
          "reference": "Patient/patient-marfan-001"
        },
        "effectiveDateTime": "2024-12-15",
        "valueCodeableConcept": {
          "coding": [
            {
              "code": "838451005",
              "system": "http://snomed.info/sct",
              "display": "Mild mitral valve regurgitation"
            }
          ],
          "text": "Mitralklappeninsuffizienz Grad I"
        },
        "interpretation": [
          {
            "coding": [
              {
                "code": "A",
                "system": "http://terminology.hl7.org/CodeSystem/v3-ObservationInterpretation",
                "display": "Abnormal"
              }
            ]
          }
        ]
      },
      "request": {
        "method": "POST",
        "url": "Observation"
      }
    },
    {
      "fullUrl": "urn:uuid:f5g6h7i8-j9k0-1l2m-3n4o-5p6q7r8s9t0u",
      "resource": {
        "resourceType": "Observation",
        "id": "variant-fbn1-001",
        "status": "final",
        "category": [
          {
            "coding": [
              {
                "code": "laboratory",
                "system": "http://terminology.hl7.org/CodeSystem/observation-category"
              }
            ]
          }
        ],
        "code": {
          "coding": [
            {
              "code": "55233-1",
              "system": "http://loinc.org",
              "display": "Genetic analysis master panel"
            }
          ]
        },
        "subject": {
          "reference": "Patient/patient-marfan-001"
        },
        "effectiveDateTime": "2024-12-20",
        "valueCodeableConcept": {
          "coding": [
            {
              "code": "10828004",
              "system": "http://snomed.info/sct",
              "display": "Positive"
            }
          ]
        },
        "component": [
          {
            "code": {
              "coding": [
                {
                  "code": "48018-6",
                  "system": "http://loinc.org",
                  "display": "Gene studied [ID]"
                }
              ]
            },
            "valueCodeableConcept": {
              "coding": [
                {
                  "code": "3603",
                  "system": "http://www.genenames.org/geneId",
                  "display": "FBN1"
                }
              ]
            }
          },
          {
            "code": {
              "coding": [
                {
                  "code": "48004-6",
                  "system": "http://loinc.org",
                  "display": "DNA change (c.HGVS)"
                }
              ]
            },
            "valueCodeableConcept": {
              "text": "c.3217G>A"
            }
          },
          {
            "code": {
              "coding": [
                {
                  "code": "48005-3",
                  "system": "http://loinc.org",
                  "display": "Amino acid change (pHGVS)"
                }
              ]
            },
            "valueCodeableConcept": {
              "text": "p.Gly1073Arg"
            }
          },
          {
            "code": {
              "coding": [
                {
                  "code": "53037-8",
                  "system": "http://loinc.org",
                  "display": "Genetic variation clinical significance [Imp]"
                }
              ]
            },
            "valueCodeableConcept": {
              "coding": [
                {
                  "code": "LA6668-3",
                  "system": "http://loinc.org",
                  "display": "Pathogenic"
                }
              ]
            }
          }
        ],
        "interpretation": [
          {
            "coding": [
              {
                "code": "POS",
                "system": "http://terminology.hl7.org/CodeSystem/v3-ObservationInterpretation",
                "display": "Positive"
              }
            ]
          }
        ],
        "note": [
          {
            "text": "Pathogene FBN1-Mutation, krankheitsursächlich für Marfan-Syndrom"
          }
        ]
      },
      "request": {
        "method": "POST",
        "url": "Observation"
      }
    },
    {
      "fullUrl": "urn:uuid:g6h7i8j9-k0l1-2m3n-4o5p-6q7r8s9t0u1v",
      "resource": {
        "resourceType": "Observation",
        "id": "observation-echo-aortic",
        "status": "final",
        "category": [
          {
            "coding": [
              {
                "code": "imaging",
                "system": "http://terminology.hl7.org/CodeSystem/observation-category"
              }
            ]
          }
        ],
        "code": {
          "coding": [
            {
              "code": "79992-2",
              "system": "http://loinc.org",
              "display": "Aortic root diameter by US"
            }
          ]
        },
        "subject": {
          "reference": "Patient/patient-marfan-001"
        },
        "effectiveDateTime": "2024-12-15",
        "valueQuantity": {
          "value": 48,
          "code": "mm",
          "system": "http://unitsofmeasure.org",
          "unit": "mm"
        },
        "interpretation": [
          {
            "coding": [
              {
                "code": "H",
                "system": "http://terminology.hl7.org/CodeSystem/v3-ObservationInterpretation",
                "display": "High"
              }
            ]
          }
        ],
        "method": {
          "coding": [
            {
              "code": "40701008",
              "system": "http://snomed.info/sct",
              "display": "Echocardiography"
            }
          ]
        }
      },
      "request": {
        "method": "POST",
        "url": "Observation"
      }
    },
    {
      "fullUrl": "urn:uuid:h7i8j9k0-l1m2-3n4o-5p6q-7r8s9t0u1v2w",
      "resource": {
        "resourceType": "Observation",
        "id": "observation-echo-av",
        "status": "final",
        "category": [
          {
            "coding": [
              {
                "code": "imaging",
                "system": "http://terminology.hl7.org/CodeSystem/observation-category"
              }
            ]
          }
        ],
        "code": {
          "coding": [
            {
              "code": "80140-5",
              "system": "http://loinc.org",
              "display": "Aortic valve regurgitation severity by US"
            }
          ]
        },
        "subject": {
          "reference": "Patient/patient-marfan-001"
        },
        "effectiveDateTime": "2024-12-15",
        "valueCodeableConcept": {
          "text": "Grad II"
        },
        "interpretation": [
          {
            "coding": [
              {
                "code": "A",
                "system": "http://terminology.hl7.org/CodeSystem/v3-ObservationInterpretation",
                "display": "Abnormal"
              }
            ]
          }
        ],
        "method": {
          "coding": [
            {
              "code": "40701008",
              "system": "http://snomed.info/sct",
              "display": "Echocardiography"
            }
          ]
        }
      },
      "request": {
        "method": "POST",
        "url": "Observation"
      }
    },
    {
      "fullUrl": "urn:uuid:i8j9k0l1-m2n3-4o5p-6q7r-8s9t0u1v2w3x",
      "resource": {
        "resourceType": "Observation",
        "id": "observation-echo-mv",
        "status": "final",
        "category": [
          {
            "coding": [
              {
                "code": "imaging",
                "system": "http://terminology.hl7.org/CodeSystem/observation-category"
              }
            ]
          }
        ],
        "code": {
          "coding": [
            {
              "code": "80186-8",
              "system": "http://loinc.org",
              "display": "Mitral valve regurgitation severity by US"
            }
          ]
        },
        "subject": {
          "reference": "Patient/patient-marfan-001"
        },
        "effectiveDateTime": "2024-12-15",
        "valueCodeableConcept": {
          "text": "Grad I"
        },
        "interpretation": [
          {
            "coding": [
              {
                "code": "A",
                "system": "http://terminology.hl7.org/CodeSystem/v3-ObservationInterpretation",
                "display": "Abnormal"
              }
            ]
          }
        ],
        "method": {
          "coding": [
            {
              "code": "40701008",
              "system": "http://snomed.info/sct",
              "display": "Echocardiography"
            }
          ]
        }
      },
      "request": {
        "method": "POST",
        "url": "Observation"
      }
    },
    {
      "fullUrl": "urn:uuid:j9k0l1m2-n3o4-5p6q-7r8s-9t0u1v2w3x4y",
      "resource": {
        "resourceType": "Procedure",
        "id": "procedure-cataract-surgery",
        "status": "completed",
        "category": {
          "coding": [
            {
              "code": "387713003",
              "system": "http://snomed.info/sct",
              "display": "Surgical procedure"
            }
          ]
        },
        "code": {
          "coding": [
            {
              "code": "5-144.5a",
              "system": "http://fhir.de/CodeSystem/bfarm/ops",
              "display": "Extrakapsuläre Extraktion der Linse [ECCE]: Linsenkernverflüssigung [Phakoemulsifikation] über kornealen Zugang: Mit Einführung einer kapselfixierten Hinterkammerlinse, monofokale Intraokularlinse"
            },
            {
              "code": "54885007",
              "system": "http://snomed.info/sct",
              "display": "Extraction of cataract"
            }
          ],
          "text": "Phakoemulsifikation mit IOL-Implantation"
        },
        "subject": {
          "reference": "Patient/patient-marfan-001"
        },
        "performedDateTime": "2024-11-12",
        "reasonReference": [
          {
            "reference": "Condition/condition-cataract"
          }
        ],
        "outcome": {
          "text": "Erfolgreiche Linsenimplantation ohne Komplikationen"
        },
        "note": [
          {
            "text": "Komplikationslose Phakoemulsifikation beider Augen mit Implantation monofokaler Intraokularlinsen"
          }
        ]
      },
      "request": {
        "method": "POST",
        "url": "Procedure"
      }
    },
    {
      "fullUrl": "urn:uuid:k0l1m2n3-o4p5-6q7r-8s9t-0u1v2w3x4y5z",
      "resource": {
        "resourceType": "Procedure",
        "id": "procedure-aortic-planned",
        "status": "preparation",
        "category": {
          "coding": [
            {
              "code": "387713003",
              "system": "http://snomed.info/sct",
              "display": "Surgical procedure"
            }
          ]
        },
        "code": {
          "coding": [
            {
              "code": "5-354.0a",
              "system": "http://fhir.de/CodeSystem/bfarm/ops",
              "display": "Andere Operationen an Herzklappen: Aortenklappe: Rekonstruktion der Aortenwurzel mit Implantation einer Gefäßprothese nach David"
            },
            {
              "code": "428179006",
              "system": "http://snomed.info/sct",
              "display": "Replacement of aortic root"
            }
          ],
          "text": "Aortenwurzelersatz (David-Operation)"
        },
        "subject": {
          "reference": "Patient/patient-marfan-001"
        },
        "performedPeriod": {
          "start": "2025-03-15"
        },
        "reasonReference": [
          {
            "reference": "Condition/condition-marfan-clinical"
          }
        ],
        "note": [
          {
            "text": "Geplante klappensparende Aortenwurzelersatz-Operation nach David bei progredienter Aortenwurzeldilatation"
          }
        ]
      },
      "request": {
        "method": "POST",
        "url": "Procedure"
      }
    },
    {
      "fullUrl": "urn:uuid:l1m2n3o4-p5q6-7r8s-9t0u-1v2w3x4y5z6a",
      "resource": {
        "resourceType": "MedicationStatement",
        "id": "medication-losartan",
        "status": "active",
        "medicationCodeableConcept": {
          "coding": [
            {
              "code": "C09CA01",
              "system": "http://fhir.de/CodeSystem/bfarm/atc",
              "display": "Losartan"
            },
            {
              "code": "373567002",
              "system": "http://snomed.info/sct",
              "display": "Losartan"
            }
          ],
          "text": "Losartan 50mg"
        },
        "subject": {
          "reference": "Patient/patient-marfan-001"
        },
        "effectiveDateTime": "2024-12-15",
        "reasonReference": [
          {
            "reference": "Condition/condition-marfan-clinical"
          }
        ],
        "dosage": [
          {
            "text": "50mg einmal täglich",
            "route": {
              "coding": [
                {
                  "code": "26643006",
                  "system": "http://snomed.info/sct",
                  "display": "Oral route"
                }
              ]
            },
            "doseAndRate": [
              {
                "doseQuantity": {
                  "value": 50,
                  "code": "mg",
                  "system": "http://unitsofmeasure.org",
                  "unit": "mg"
                }
              }
            ],
            "timing": {
              "repeat": {
                "frequency": 1,
                "period": 1,
                "periodUnit": "d"
              }
            }
          }
        ],
        "note": [
          {
            "text": "Zur Progressionshemmung der Aortenwurzeldilatation bei Marfan-Syndrom"
          }
        ]
      },
      "request": {
        "method": "POST",
        "url": "MedicationStatement"
      }
    },
    {
      "fullUrl": "urn:uuid:m2n3o4p5-q6r7-8s9t-0u1v-2w3x4y5z6a7b",
      "resource": {
        "resourceType": "ClinicalImpression",
        "id": "clinical-impression-se-assessment",
        "meta": {
          "profile": [
            "https://www.medizininformatik-initiative.de/fhir/ext/modul-seltene/StructureDefinition/mii-pr-se-clinical-impression"
          ]
        },
        "status": "completed",
        "subject": {
          "reference": "Patient/patient-marfan-001"
        },
        "encounter": {
          "reference": "Encounter/encounter-cardiology"
        },
        "effectiveDateTime": "2024-12-15",
        "date": "2024-12-15",
        "summary": "19-jähriger Patient mit Z.n. Katarakt-OP im ZSE vorstellig. Kardiologische Mitbeurteilung zeigt: Aortenwurzeldilatation (48mm), AKI Grad II, MKI Grad I. Skelettale Merkmale (Hochwuchs 2,13m, Beinlängendifferenz) bestätigen Marfan-Syndrom. Klinische und genetische Diagnose gesichert.",
        "problem": [
          {
            "reference": "Condition/condition-marfan-suspected"
          },
          {
            "reference": "Condition/condition-marfan-clinical"
          },
          {
            "reference": "Condition/condition-marfan-genetic"
          }
        ],
        "finding": [
          {
            "itemReference": {
              "reference": "Condition/condition-marfan-clinical"
            }
          },
          {
            "itemReference": {
              "reference": "Condition/condition-marfan-genetic"
            }
          },
          {
            "itemCodeableConcept": {
              "coding": [
                {
                  "code": "251036003",
                  "system": "http://snomed.info/sct",
                  "display": "Aortic root dilatation"
                }
              ]
            },
            "itemReference": {
              "reference": "Observation/symptom-aortic-root"
            }
          },
          {
            "itemCodeableConcept": {
              "coding": [
                {
                  "code": "60234000",
                  "system": "http://snomed.info/sct",
                  "display": "Aortic valve regurgitation"
                }
              ]
            },
            "itemReference": {
              "reference": "Observation/symptom-aortic-regurg"
            }
          },
          {
            "itemCodeableConcept": {
              "coding": [
                {
                  "code": "48724000",
                  "system": "http://snomed.info/sct",
                  "display": "Mitral valve regurgitation"
                }
              ]
            },
            "itemReference": {
              "reference": "Observation/symptom-mitral-regurg"
            }
          },
          {
            "itemCodeableConcept": {
              "coding": [
                {
                  "code": "248328003",
                  "system": "http://snomed.info/sct",
                  "display": "Tall stature"
                }
              ]
            },
            "itemReference": {
              "reference": "Observation/observation-height-001"
            }
          },
          {
            "itemCodeableConcept": {
              "coding": [
                {
                  "code": "707738004",
                  "system": "http://snomed.info/sct",
                  "display": "Leg length discrepancy"
                }
              ]
            },
            "itemReference": {
              "reference": "Observation/observation-leg-asymmetry"
            }
          }
        ],
        "investigation": [
          {
            "code": {
              "text": "Echokardiographie"
            },
            "item": [
              {
                "reference": "Observation/observation-echo-aortic"
              },
              {
                "reference": "Observation/observation-echo-av"
              },
              {
                "reference": "Observation/observation-echo-mv"
              }
            ]
          }
        ],
        "prognosisCodeableConcept": [
          {
            "coding": [
              {
                "code": "67334001",
                "system": "http://snomed.info/sct",
                "display": "Guarded prognosis"
              }
            ]
          }
        ],
        "note": [
          {
            "text": "Katarakt in jungem Alter war Anlass für ZSE-Konsultation. Marfan-Syndrom klinisch und genetisch (FBN1-Mutation) bestätigt. OP-Indikation für Aortenwurzelersatz durch Kardiologie gestellt. Medikamentöse Therapie mit Losartan eingeleitet."
          },
          {
            "text": "Multidisziplinäre Betreuung im ZSE etabliert. Regelmäßige kardiologische Kontrollen alle 6 Monate. Genetische Beratung für Familienplanung empfohlen."
          }
        ]
      },
      "request": {
        "method": "POST",
        "url": "ClinicalImpression"
      }
    },
    {
      "fullUrl": "urn:uuid:n3o4p5q6-r7s8-9t0u-1v2w-3x4y5z6a7b8c",
      "resource": {
        "resourceType": "Encounter",
        "id": "encounter-ophthalmology",
        "status": "finished",
        "class": {
          "code": "AMB",
          "system": "http://terminology.hl7.org/CodeSystem/v3-ActCode",
          "display": "ambulatory"
        },
        "type": [
          {
            "coding": [
              {
                "code": "36228007",
                "system": "http://snomed.info/sct",
                "display": "Ophthalmic examination and evaluation"
              }
            ]
          }
        ],
        "subject": {
          "reference": "Patient/patient-marfan-001"
        },
        "period": {
          "start": "2024-10-15",
          "end": "2024-10-15"
        },
        "diagnosis": [
          {
            "condition": {
              "reference": "Condition/condition-cataract"
            },
            "use": {
              "coding": [
                {
                  "code": "AD",
                  "system": "http://terminology.hl7.org/CodeSystem/diagnosis-role",
                  "display": "Admission diagnosis"
                }
              ]
            }
          }
        ]
      },
      "request": {
        "method": "POST",
        "url": "Encounter"
      }
    },
    {
      "fullUrl": "urn:uuid:o4p5q6r7-s8t9-0u1v-2w3x-4y5z6a7b8c9d",
      "resource": {
        "resourceType": "Encounter",
        "id": "encounter-cataract-surgery",
        "status": "finished",
        "class": {
          "code": "SS",
          "system": "http://terminology.hl7.org/CodeSystem/v3-ActCode",
          "display": "short stay"
        },
        "type": [
          {
            "coding": [
              {
                "code": "305408004",
                "system": "http://snomed.info/sct",
                "display": "Admission to surgical department"
              }
            ]
          }
        ],
        "subject": {
          "reference": "Patient/patient-marfan-001"
        },
        "period": {
          "start": "2024-11-12T07:00:00Z",
          "end": "2024-11-12T15:00:00Z"
        },
        "diagnosis": [
          {
            "condition": {
              "reference": "Condition/condition-cataract"
            },
            "use": {
              "coding": [
                {
                  "code": "CC",
                  "system": "http://terminology.hl7.org/CodeSystem/diagnosis-role",
                  "display": "Chief complaint"
                }
              ]
            }
          }
        ]
      },
      "request": {
        "method": "POST",
        "url": "Encounter"
      }
    },
    {
      "fullUrl": "urn:uuid:p5q6r7s8-t9u0-1v2w-3x4y-5z6a7b8c9d0e",
      "resource": {
        "resourceType": "Encounter",
        "id": "encounter-cardiology",
        "status": "finished",
        "class": {
          "code": "AMB",
          "system": "http://terminology.hl7.org/CodeSystem/v3-ActCode",
          "display": "ambulatory"
        },
        "type": [
          {
            "coding": [
              {
                "code": "185316007",
                "system": "http://snomed.info/sct",
                "display": "Cardiology consultation"
              }
            ]
          }
        ],
        "subject": {
          "reference": "Patient/patient-marfan-001"
        },
        "period": {
          "start": "2024-12-15",
          "end": "2024-12-15"
        },
        "diagnosis": [
          {
            "condition": {
              "reference": "Condition/condition-marfan-clinical"
            },
            "use": {
              "coding": [
                {
                  "code": "AD",
                  "system": "http://terminology.hl7.org/CodeSystem/diagnosis-role",
                  "display": "Admission diagnosis"
                }
              ]
            }
          }
        ],
        "reasonCode": [
          {
            "coding": [
              {
                "code": "29857009",
                "system": "http://snomed.info/sct",
                "display": "Chest pain"
              }
            ],
            "text": "Thoraxschmerzen bei V.a. Marfan-Syndrom"
          }
        ]
      },
      "request": {
        "method": "POST",
        "url": "Encounter"
      }
    },
    {
      "fullUrl": "urn:uuid:q6r7s8t9-u0v1-2w3x-4y5z-6a7b8c9d0e1f",
      "resource": {
        "resourceType": "Encounter",
        "id": "encounter-surgery-planned",
        "status": "preparation",
        "class": {
          "code": "IMP",
          "system": "http://terminology.hl7.org/CodeSystem/v3-ActCode",
          "display": "inpatient encounter"
        },
        "type": [
          {
            "coding": [
              {
                "code": "305357000",
                "system": "http://snomed.info/sct",
                "display": "Admission to cardiology department"
              }
            ]
          }
        ],
        "subject": {
          "reference": "Patient/patient-marfan-001"
        },
        "period": {
          "start": "2025-03-15"
        },
        "diagnosis": [
          {
            "condition": {
              "reference": "Condition/condition-marfan-clinical"
            },
            "use": {
              "coding": [
                {
                  "code": "CC",
                  "system": "http://terminology.hl7.org/CodeSystem/diagnosis-role",
                  "display": "Chief complaint"
                }
              ]
            }
          }
        ],
        "reasonCode": [
          {
            "text": "Elektive Aortenwurzelersatz-Operation bei Marfan-Syndrom"
          }
        ]
      },
      "request": {
        "method": "POST",
        "url": "Encounter"
      }
    }
  ]
}
