{
  "resourceType": "Bundle",
  "id": "bundle-marfan-complete",
  "type": "transaction",
  "timestamp": "2024-12-15T14:00:00Z",
  "entry": [
    {
      "fullUrl": "urn:uuid:546740dd-771d-41e4-a2a5-e8d6a2b5c505",
      "resource": {
        "resourceType": "Patient",
        "id": "patient-marfan-001",
        "identifier": [
          {
            "system": "https://www.medizininformatik-initiative.de/fhir/sid/patient-id",
            "value": "MRF-2024-001"
          }
        ],
        "gender": "male",
        "birthDate": "2005-01-01"
      },
      "request": {
        "method": "POST",
        "url": "Patient"
      }
    },
    {
      "fullUrl": "urn:uuid:12b18efe-aae8-4039-9e2c-466ee0cb0ce0",
      "resource": {
        "resourceType": "Condition",
        "id": "condition-marfan-suspected",
        "meta": {
          "profile": [
            "https://www.medizininformatik-initiative.de/fhir/ext/modul-seltene/StructureDefinition/mii-pr-seltene-clinical-diagnosis|2026.0.0"
          ]
        },
        "code": {
          "coding": [
            {
              "system": "http://fhir.de/CodeSystem/bfarm/icd-10-gm",
              "code": "Q87.4",
              "display": "Marfan-Syndrom",
              "version": "2024"
            },
            {
              "system": "http://snomed.info/sct",
              "code": "19346006",
              "display": "Marfan syndrome"
            },
            {
              "system": "http://www.orpha.net",
              "code": "558",
              "display": "Marfan syndrome"
            }
          ],
          "text": "Verdacht auf Marfan-Syndrom"
        },
        "clinicalStatus": {
          "coding": [
            {
              "code": "active",
              "system": "http://terminology.hl7.org/CodeSystem/condition-clinical"
            }
          ]
        },
        "verificationStatus": {
          "coding": [
            {
              "code": "provisional",
              "system": "http://terminology.hl7.org/CodeSystem/condition-ver-status"
            }
          ]
        },
        "category": [
          {
            "coding": [
              {
                "code": "encounter-diagnosis",
                "system": "http://terminology.hl7.org/CodeSystem/condition-category"
              }
            ]
          }
        ],
        "subject": {
          "reference": "Patient/patient-marfan-001"
        },
        "extension": [
          {
            "url": "http://hl7.org/fhir/StructureDefinition/condition-assertedDate",
            "valueDateTime": "2024-12-10"
          }
        ],
        "recordedDate": "2024-12-10",
        "note": [
          {
            "text": "Verdacht auf Marfan-Syndrom aufgrund klinischer Präsentation"
          }
        ]
      },
      "request": {
        "method": "POST",
        "url": "Condition"
      }
    },
    {
      "fullUrl": "urn:uuid:6842a03b-9adc-4cb7-9126-85d317203e7b",
      "resource": {
        "resourceType": "Condition",
        "id": "condition-marfan-clinical",
        "meta": {
          "profile": [
            "https://www.medizininformatik-initiative.de/fhir/ext/modul-seltene/StructureDefinition/mii-pr-seltene-clinical-diagnosis|2026.0.0"
          ]
        },
        "code": {
          "coding": [
            {
              "system": "http://omim.org",
              "code": "154700",
              "display": "Marfan syndrome",
              "version": "2024"
            },
            {
              "system": "http://snomed.info/sct",
              "code": "19346006",
              "display": "Marfan syndrome"
            },
            {
              "system": "http://www.orpha.net",
              "code": "558",
              "display": "Marfan syndrome"
            }
          ],
          "text": "Marfan-Syndrom"
        },
        "clinicalStatus": {
          "coding": [
            {
              "code": "active",
              "system": "http://terminology.hl7.org/CodeSystem/condition-clinical"
            }
          ]
        },
        "verificationStatus": {
          "coding": [
            {
              "code": "confirmed",
              "system": "http://terminology.hl7.org/CodeSystem/condition-ver-status"
            }
          ]
        },
        "category": [
          {
            "coding": [
              {
                "code": "encounter-diagnosis",
                "system": "http://terminology.hl7.org/CodeSystem/condition-category"
              }
            ]
          }
        ],
        "subject": {
          "reference": "Patient/patient-marfan-001"
        },
        "extension": [
          {
            "url": "http://hl7.org/fhir/StructureDefinition/condition-assertedDate",
            "valueDateTime": "2024-12-15"
          }
        ],
        "recordedDate": "2024-12-15",
        "encounter": {
          "reference": "Encounter/encounter-cardiology"
        },
        "evidence": [
          {
            "code": [
              {
                "coding": [
                  {
                    "code": "HP:0002616",
                    "system": "http://human-phenotype-ontology.org",
                    "display": "Aortic root aneurysm"
                  }
                ]
              }
            ],
            "detail": [
              {
                "reference": "Observation/symptom-aortic-root"
              }
            ]
          },
          {
            "code": [
              {
                "coding": [
                  {
                    "code": "HP:0001659",
                    "system": "http://human-phenotype-ontology.org",
                    "display": "Aortic regurgitation"
                  }
                ]
              }
            ],
            "detail": [
              {
                "reference": "Observation/symptom-aortic-regurg"
              }
            ]
          },
          {
            "code": [
              {
                "coding": [
                  {
                    "code": "HP:0001653",
                    "system": "http://human-phenotype-ontology.org",
                    "display": "Mitral regurgitation"
                  }
                ]
              }
            ],
            "detail": [
              {
                "reference": "Observation/symptom-mitral-regurg"
              }
            ]
          },
          {
            "code": [
              {
                "coding": [
                  {
                    "code": "HP:0000098",
                    "system": "http://human-phenotype-ontology.org",
                    "display": "Tall stature"
                  }
                ]
              }
            ],
            "detail": [
              {
                "reference": "Observation/observation-height-001"
              }
            ]
          },
          {
            "code": [
              {
                "coding": [
                  {
                    "code": "HP:0100559",
                    "system": "http://human-phenotype-ontology.org",
                    "display": "Lower limb asymmetry"
                  }
                ]
              }
            ],
            "detail": [
              {
                "reference": "Observation/observation-leg-asymmetry"
              }
            ]
          },
          {
            "code": [
              {
                "coding": [
                  {
                    "code": "HP:0100749",
                    "system": "http://human-phenotype-ontology.org",
                    "display": "Chest pain"
                  }
                ]
              }
            ],
            "detail": [
              {
                "reference": "Observation/symptom-chest-pain"
              }
            ]
          }
        ],
        "note": [
          {
            "text": "Marfan-Syndrom klinisch diagnostiziert basierend auf kardialen Befunden, Skelettmerkmalen und ophthalmologischer Manifestation"
          }
        ]
      },
      "request": {
        "method": "POST",
        "url": "Condition"
      }
    },
    {
      "fullUrl": "urn:uuid:23bd27f8-f2b5-4bc9-8fa3-078c26bc64a2",
      "resource": {
        "resourceType": "Condition",
        "id": "condition-marfan-genetic",
        "meta": {
          "profile": [
            "https://www.medizininformatik-initiative.de/fhir/ext/modul-seltene/StructureDefinition/mii-pr-seltene-genetic-diagnosis|2026.0.0"
          ]
        },
        "category": [
          {
            "coding": [
              {
                "code": "782964007",
                "system": "http://snomed.info/sct",
                "display": "Genetic disease"
              }
            ]
          }
        ],
        "code": {
          "coding": [
            {
              "system": "http://omim.org",
              "code": "154700",
              "display": "Marfan syndrome",
              "version": "2024"
            },
            {
              "system": "http://snomed.info/sct",
              "code": "19346006",
              "display": "Marfan syndrome"
            },
            {
              "system": "http://www.orpha.net",
              "code": "558",
              "display": "Marfan syndrome"
            }
          ],
          "text": "Marfan-Syndrom - genetisch bestätigt"
        },
        "clinicalStatus": {
          "coding": [
            {
              "code": "active",
              "system": "http://terminology.hl7.org/CodeSystem/condition-clinical"
            }
          ]
        },
        "verificationStatus": {
          "coding": [
            {
              "code": "confirmed",
              "system": "http://terminology.hl7.org/CodeSystem/condition-ver-status"
            }
          ]
        },
        "subject": {
          "reference": "Patient/patient-marfan-001"
        },
        "extension": [
          {
            "url": "http://hl7.org/fhir/StructureDefinition/condition-assertedDate",
            "valueDateTime": "2024-12-20"
          }
        ],
        "recordedDate": "2024-12-20",
        "evidence": [
          {
            "code": [
              {
                "coding": [
                  {
                    "code": "106221001",
                    "system": "http://snomed.info/sct",
                    "display": "Genetic finding"
                  }
                ]
              }
            ],
            "detail": [
              {
                "reference": "Observation/variant-fbn1-001"
              }
            ]
          }
        ],
        "note": [
          {
            "text": "FBN1-Mutation c.3217G>A (p.Gly1073Arg) nachgewiesen, krankheitsursächlich. Genetische Diagnose existiert parallel zur klinischen Diagnose."
          }
        ]
      },
      "request": {
        "method": "POST",
        "url": "Condition"
      }
    },
    {
      "fullUrl": "urn:uuid:f584ef12-6225-4e71-9186-68528f68e07d",
      "resource": {
        "resourceType": "Condition",
        "id": "condition-cataract",
        "meta": {
          "profile": [
            "https://www.medizininformatik-initiative.de/fhir/ext/modul-seltene/StructureDefinition/mii-pr-seltene-clinical-diagnosis|2026.0.0"
          ]
        },
        "code": {
          "coding": [
            {
              "system": "http://fhir.de/CodeSystem/bfarm/icd-10-gm",
              "code": "H26.9",
              "display": "Katarakt, nicht näher bezeichnet",
              "version": "2024"
            },
            {
              "system": "http://snomed.info/sct",
              "code": "193570009",
              "display": "Cataract"
            },
            {
              "system": "http://human-phenotype-ontology.org",
              "code": "HP:0000518",
              "display": "Cataract"
            }
          ],
          "text": "Katarakt bilateral"
        },
        "clinicalStatus": {
          "coding": [
            {
              "code": "resolved",
              "system": "http://terminology.hl7.org/CodeSystem/condition-clinical"
            }
          ]
        },
        "verificationStatus": {
          "coding": [
            {
              "code": "confirmed",
              "system": "http://terminology.hl7.org/CodeSystem/condition-ver-status"
            }
          ]
        },
        "category": [
          {
            "coding": [
              {
                "code": "encounter-diagnosis",
                "system": "http://terminology.hl7.org/CodeSystem/condition-category"
              }
            ]
          }
        ],
        "subject": {
          "reference": "Patient/patient-marfan-001"
        },
        "extension": [
          {
            "url": "http://hl7.org/fhir/StructureDefinition/condition-assertedDate",
            "valueDateTime": "2024-10-15"
          }
        ],
        "recordedDate": "2024-10-15",
        "encounter": {
          "reference": "Encounter/encounter-ophthalmology"
        },
        "abatementDateTime": "2024-11-12",
        "evidence": [
          {
            "code": [
              {
                "coding": [
                  {
                    "code": "HP:0000518",
                    "system": "http://human-phenotype-ontology.org",
                    "display": "Cataract"
                  }
                ]
              }
            ],
            "detail": [
              {
                "reference": "Observation/symptom-cataract"
              }
            ]
          }
        ],
        "note": [
          {
            "text": "Katarakt bilateral, operativ versorgt"
          }
        ]
      },
      "request": {
        "method": "POST",
        "url": "Condition"
      }
    },
    {
      "fullUrl": "urn:uuid:72fa4681-014d-4caa-86a3-97cea92766f4",
      "resource": {
        "resourceType": "Observation",
        "id": "observation-height-001",
        "status": "final",
        "category": [
          {
            "coding": [
              {
                "code": "vital-signs",
                "system": "http://terminology.hl7.org/CodeSystem/observation-category"
              }
            ]
          }
        ],
        "code": {
          "coding": [
            {
              "code": "8302-2",
              "system": "http://loinc.org",
              "display": "Body height"
            }
          ]
        },
        "subject": {
          "reference": "Patient/patient-marfan-001"
        },
        "effectiveDateTime": "2024-12-15",
        "valueQuantity": {
          "value": 213,
          "code": "cm",
          "system": "http://unitsofmeasure.org",
          "unit": "cm"
        },
        "interpretation": [
          {
            "coding": [
              {
                "code": "H",
                "system": "http://terminology.hl7.org/CodeSystem/v3-ObservationInterpretation",
                "display": "High"
              }
            ]
          }
        ],
        "bodySite": {
          "coding": [
            {
              "code": "38266002",
              "system": "http://snomed.info/sct",
              "display": "Entire body as a whole"
            }
          ]
        },
        "component": [
          {
            "code": {
              "coding": [
                {
                  "code": "HP:0000098",
                  "system": "http://human-phenotype-ontology.org",
                  "display": "Tall stature"
                }
              ]
            },
            "valueString": "Pathologischer Hochwuchs >99. Perzentile"
          }
        ]
      },
      "request": {
        "method": "POST",
        "url": "Observation"
      }
    },
    {
      "fullUrl": "urn:uuid:9dfa4ddc-723f-4c65-b86d-1a88304e77fe",
      "resource": {
        "resourceType": "Observation",
        "id": "observation-leg-asymmetry",
        "status": "final",
        "category": [
          {
            "coding": [
              {
                "code": "exam",
                "system": "http://terminology.hl7.org/CodeSystem/observation-category"
              }
            ]
          }
        ],
        "code": {
          "coding": [
            {
              "code": "707738004",
              "system": "http://snomed.info/sct",
              "display": "Leg length discrepancy"
            }
          ]
        },
        "subject": {
          "reference": "Patient/patient-marfan-001"
        },
        "effectiveDateTime": "2024-12-15",
        "valueCodeableConcept": {
          "coding": [
            {
              "code": "7771000",
              "system": "http://snomed.info/sct",
              "display": "Left"
            }
          ]
        },
        "interpretation": [
          {
            "coding": [
              {
                "code": "A",
                "system": "http://terminology.hl7.org/CodeSystem/v3-ObservationInterpretation",
                "display": "Abnormal"
              }
            ]
          }
        ],
        "bodySite": {
          "coding": [
            {
              "code": "30021000",
              "system": "http://snomed.info/sct",
              "display": "Lower leg structure"
            }
          ]
        },
        "component": [
          {
            "code": {
              "coding": [
                {
                  "code": "HP:0100559",
                  "system": "http://human-phenotype-ontology.org",
                  "display": "Lower limb asymmetry"
                }
              ]
            },
            "valueString": "Rechtes Bein verkürzt"
          }
        ]
      },
      "request": {
        "method": "POST",
        "url": "Observation"
      }
    },
    {
      "fullUrl": "urn:uuid:b5f66545-2f6e-450c-a92e-8e9d2626e003",
      "resource": {
        "resourceType": "Observation",
        "id": "symptom-chest-pain",
        "status": "final",
        "category": [
          {
            "coding": [
              {
                "code": "exam",
                "system": "http://terminology.hl7.org/CodeSystem/observation-category"
              }
            ]
          }
        ],
        "code": {
          "coding": [
            {
              "code": "HP:0100749",
              "system": "http://human-phenotype-ontology.org",
              "display": "Chest pain"
            },
            {
              "code": "29857009",
              "system": "http://snomed.info/sct",
              "display": "Chest pain"
            }
          ],
          "text": "Thoraxschmerzen"
        },
        "subject": {
          "reference": "Patient/patient-marfan-001"
        },
        "effectiveDateTime": "2024-12-15",
        "valueCodeableConcept": {
          "coding": [
            {
              "code": "52101004",
              "system": "http://snomed.info/sct",
              "display": "Present"
            }
          ]
        },
        "interpretation": [
          {
            "coding": [
              {
                "code": "A",
                "system": "http://terminology.hl7.org/CodeSystem/v3-ObservationInterpretation",
                "display": "Abnormal"
              }
            ]
          }
        ]
      },
      "request": {
        "method": "POST",
        "url": "Observation"
      }
    },
    {
      "fullUrl": "urn:uuid:ce25223c-45fe-4a87-ba1b-e120cba24e94",
      "resource": {
        "resourceType": "Observation",
        "id": "symptom-cataract",
        "status": "final",
        "category": [
          {
            "coding": [
              {
                "code": "exam",
                "system": "http://terminology.hl7.org/CodeSystem/observation-category"
              }
            ]
          }
        ],
        "code": {
          "coding": [
            {
              "code": "HP:0000518",
              "system": "http://human-phenotype-ontology.org",
              "display": "Cataract"
            },
            {
              "code": "193570009",
              "system": "http://snomed.info/sct",
              "display": "Cataract"
            }
          ],
          "text": "Katarakt bilateral"
        },
        "subject": {
          "reference": "Patient/patient-marfan-001"
        },
        "effectiveDateTime": "2024-10-15",
        "valueCodeableConcept": {
          "coding": [
            {
              "code": "51440002",
              "system": "http://snomed.info/sct",
              "display": "Bilateral"
            }
          ]
        },
        "interpretation": [
          {
            "coding": [
              {
                "code": "A",
                "system": "http://terminology.hl7.org/CodeSystem/v3-ObservationInterpretation",
                "display": "Abnormal"
              }
            ]
          }
        ],
        "bodySite": {
          "coding": [
            {
              "code": "81745001",
              "system": "http://snomed.info/sct",
              "display": "Eye structure"
            }
          ]
        }
      },
      "request": {
        "method": "POST",
        "url": "Observation"
      }
    },
    {
      "fullUrl": "urn:uuid:a482bf38-9c7a-4295-a0f2-a38c1d15aae7",
      "resource": {
        "resourceType": "Observation",
        "id": "symptom-aortic-root",
        "status": "final",
        "category": [
          {
            "coding": [
              {
                "code": "imaging",
                "system": "http://terminology.hl7.org/CodeSystem/observation-category"
              }
            ]
          }
        ],
        "code": {
          "coding": [
            {
              "code": "HP:0002616",
              "system": "http://human-phenotype-ontology.org",
              "display": "Aortic root aneurysm"
            },
            {
              "code": "251036003",
              "system": "http://snomed.info/sct",
              "display": "Aortic root dilatation"
            }
          ],
          "text": "Aortenwurzeldilatation"
        },
        "subject": {
          "reference": "Patient/patient-marfan-001"
        },
        "effectiveDateTime": "2024-12-15",
        "valueQuantity": {
          "value": 48,
          "code": "mm",
          "system": "http://unitsofmeasure.org",
          "unit": "mm"
        },
        "interpretation": [
          {
            "coding": [
              {
                "code": "H",
                "system": "http://terminology.hl7.org/CodeSystem/v3-ObservationInterpretation",
                "display": "High"
              }
            ]
          }
        ],
        "referenceRange": [
          {
            "high": {
              "value": 40,
              "unit": "mm"
            },
            "text": "Normwert <40mm"
          }
        ]
      },
      "request": {
        "method": "POST",
        "url": "Observation"
      }
    },
    {
      "fullUrl": "urn:uuid:7b78bb46-817f-4786-84f8-0805b1580192",
      "resource": {
        "resourceType": "Observation",
        "id": "symptom-aortic-regurg",
        "status": "final",
        "category": [
          {
            "coding": [
              {
                "code": "imaging",
                "system": "http://terminology.hl7.org/CodeSystem/observation-category"
              }
            ]
          }
        ],
        "code": {
          "coding": [
            {
              "code": "HP:0001659",
              "system": "http://human-phenotype-ontology.org",
              "display": "Aortic regurgitation"
            },
            {
              "code": "60234000",
              "system": "http://snomed.info/sct",
              "display": "Aortic valve regurgitation"
            }
          ],
          "text": "Aortenklappeninsuffizienz"
        },
        "subject": {
          "reference": "Patient/patient-marfan-001"
        },
        "effectiveDateTime": "2024-12-15",
        "valueCodeableConcept": {
          "coding": [
            {
              "code": "838545002",
              "system": "http://snomed.info/sct",
              "display": "Moderate aortic valve regurgitation"
            }
          ],
          "text": "Aortenklappeninsuffizienz Grad II"
        },
        "interpretation": [
          {
            "coding": [
              {
                "code": "A",
                "system": "http://terminology.hl7.org/CodeSystem/v3-ObservationInterpretation",
                "display": "Abnormal"
              }
            ]
          }
        ]
      },
      "request": {
        "method": "POST",
        "url": "Observation"
      }
    },
    {
      "fullUrl": "urn:uuid:a933aaca-920c-4d29-be34-1d38c60b8bc9",
      "resource": {
        "resourceType": "Observation",
        "id": "symptom-mitral-regurg",
        "status": "final",
        "category": [
          {
            "coding": [
              {
                "code": "imaging",
                "system": "http://terminology.hl7.org/CodeSystem/observation-category"
              }
            ]
          }
        ],
        "code": {
          "coding": [
            {
              "code": "HP:0001653",
              "system": "http://human-phenotype-ontology.org",
              "display": "Mitral regurgitation"
            },
            {
              "code": "48724000",
              "system": "http://snomed.info/sct",
              "display": "Mitral valve regurgitation"
            }
          ],
          "text": "Mitralklappeninsuffizienz"
        },
        "subject": {
          "reference": "Patient/patient-marfan-001"
        },
        "effectiveDateTime": "2024-12-15",
        "valueCodeableConcept": {
          "coding": [
            {
              "code": "838451005",
              "system": "http://snomed.info/sct",
              "display": "Mild mitral valve regurgitation"
            }
          ],
          "text": "Mitralklappeninsuffizienz Grad I"
        },
        "interpretation": [
          {
            "coding": [
              {
                "code": "A",
                "system": "http://terminology.hl7.org/CodeSystem/v3-ObservationInterpretation",
                "display": "Abnormal"
              }
            ]
          }
        ]
      },
      "request": {
        "method": "POST",
        "url": "Observation"
      }
    },
    {
      "fullUrl": "urn:uuid:b769b1ea-3ec2-4b35-86d2-9a0ca128e1e6",
      "resource": {
        "resourceType": "Observation",
        "id": "variant-fbn1-001",
        "status": "final",
        "category": [
          {
            "coding": [
              {
                "code": "laboratory",
                "system": "http://terminology.hl7.org/CodeSystem/observation-category"
              }
            ]
          }
        ],
        "code": {
          "coding": [
            {
              "code": "55233-1",
              "system": "http://loinc.org",
              "display": "Genetic analysis master panel"
            }
          ]
        },
        "subject": {
          "reference": "Patient/patient-marfan-001"
        },
        "effectiveDateTime": "2024-12-20",
        "valueCodeableConcept": {
          "coding": [
            {
              "code": "10828004",
              "system": "http://snomed.info/sct",
              "display": "Positive"
            }
          ]
        },
        "component": [
          {
            "code": {
              "coding": [
                {
                  "code": "48018-6",
                  "system": "http://loinc.org",
                  "display": "Gene studied [ID]"
                }
              ]
            },
            "valueCodeableConcept": {
              "coding": [
                {
                  "code": "HGNC:3603",
                  "system": "http://www.genenames.org/geneId",
                  "display": "FBN1"
                }
              ]
            }
          },
          {
            "code": {
              "coding": [
                {
                  "code": "48004-6",
                  "system": "http://loinc.org",
                  "display": "DNA change (c.HGVS)"
                }
              ]
            },
            "valueCodeableConcept": {
              "text": "c.3217G>A"
            }
          },
          {
            "code": {
              "coding": [
                {
                  "code": "48005-3",
                  "system": "http://loinc.org",
                  "display": "Amino acid change (pHGVS)"
                }
              ]
            },
            "valueCodeableConcept": {
              "text": "p.Gly1073Arg"
            }
          },
          {
            "code": {
              "coding": [
                {
                  "code": "53037-8",
                  "system": "http://loinc.org",
                  "display": "Genetic variation clinical significance [Imp]"
                }
              ]
            },
            "valueCodeableConcept": {
              "coding": [
                {
                  "code": "LA6668-3",
                  "system": "http://loinc.org",
                  "display": "Pathogenic"
                }
              ]
            }
          }
        ],
        "interpretation": [
          {
            "coding": [
              {
                "code": "POS",
                "system": "http://terminology.hl7.org/CodeSystem/v3-ObservationInterpretation",
                "display": "Positive"
              }
            ]
          }
        ],
        "note": [
          {
            "text": "Pathogene FBN1-Mutation, krankheitsursächlich für Marfan-Syndrom"
          }
        ]
      },
      "request": {
        "method": "POST",
        "url": "Observation"
      }
    },
    {
      "fullUrl": "urn:uuid:b4d84fa0-2c48-4613-ba4f-05b75d83c3c9",
      "resource": {
        "resourceType": "Observation",
        "id": "observation-echo-aortic",
        "status": "final",
        "category": [
          {
            "coding": [
              {
                "code": "imaging",
                "system": "http://terminology.hl7.org/CodeSystem/observation-category"
              }
            ]
          }
        ],
        "code": {
          "coding": [
            {
              "code": "78176-5",
              "system": "http://loinc.org",
              "display": "Aorta root Diameter by US 2D"
            }
          ]
        },
        "subject": {
          "reference": "Patient/patient-marfan-001"
        },
        "effectiveDateTime": "2024-12-15",
        "valueQuantity": {
          "value": 48,
          "code": "mm",
          "system": "http://unitsofmeasure.org",
          "unit": "mm"
        },
        "interpretation": [
          {
            "coding": [
              {
                "code": "H",
                "system": "http://terminology.hl7.org/CodeSystem/v3-ObservationInterpretation",
                "display": "High"
              }
            ]
          }
        ],
        "method": {
          "coding": [
            {
              "code": "40701008",
              "system": "http://snomed.info/sct",
              "display": "Echocardiography"
            }
          ]
        }
      },
      "request": {
        "method": "POST",
        "url": "Observation"
      }
    },
    {
      "fullUrl": "urn:uuid:796c77be-100b-4935-b738-ef8d6175d668",
      "resource": {
        "resourceType": "Observation",
        "id": "observation-echo-av",
        "status": "final",
        "category": [
          {
            "coding": [
              {
                "code": "imaging",
                "system": "http://terminology.hl7.org/CodeSystem/observation-category"
              }
            ]
          }
        ],
        "code": {
          "coding": [
            {
              "code": "18112-3",
              "system": "http://loinc.org",
              "display": "Aortic valve Regurgitation degree by US.doppler"
            }
          ]
        },
        "subject": {
          "reference": "Patient/patient-marfan-001"
        },
        "effectiveDateTime": "2024-12-15",
        "valueCodeableConcept": {
          "text": "Grad II"
        },
        "interpretation": [
          {
            "coding": [
              {
                "code": "A",
                "system": "http://terminology.hl7.org/CodeSystem/v3-ObservationInterpretation",
                "display": "Abnormal"
              }
            ]
          }
        ],
        "method": {
          "coding": [
            {
              "code": "40701008",
              "system": "http://snomed.info/sct",
              "display": "Echocardiography"
            }
          ]
        }
      },
      "request": {
        "method": "POST",
        "url": "Observation"
      }
    },
    {
      "fullUrl": "urn:uuid:c9a2b002-1177-4c4e-82c0-a8d32983da28",
      "resource": {
        "resourceType": "Observation",
        "id": "observation-echo-mv",
        "status": "final",
        "category": [
          {
            "coding": [
              {
                "code": "imaging",
                "system": "http://terminology.hl7.org/CodeSystem/observation-category"
              }
            ]
          }
        ],
        "code": {
          "coding": [
            {
              "code": "18113-1",
              "system": "http://loinc.org",
              "display": "Mitral valve Regurgitation degree by US.doppler"
            }
          ]
        },
        "subject": {
          "reference": "Patient/patient-marfan-001"
        },
        "effectiveDateTime": "2024-12-15",
        "valueCodeableConcept": {
          "text": "Grad I"
        },
        "interpretation": [
          {
            "coding": [
              {
                "code": "A",
                "system": "http://terminology.hl7.org/CodeSystem/v3-ObservationInterpretation",
                "display": "Abnormal"
              }
            ]
          }
        ],
        "method": {
          "coding": [
            {
              "code": "40701008",
              "system": "http://snomed.info/sct",
              "display": "Echocardiography"
            }
          ]
        }
      },
      "request": {
        "method": "POST",
        "url": "Observation"
      }
    },
    {
      "fullUrl": "urn:uuid:7aa4841a-ee1c-462f-86c7-00a2705d42f4",
      "resource": {
        "resourceType": "Procedure",
        "id": "procedure-cataract-surgery",
        "status": "completed",
        "category": {
          "coding": [
            {
              "code": "387713003",
              "system": "http://snomed.info/sct",
              "display": "Surgical procedure"
            }
          ]
        },
        "code": {
          "coding": [
            {
              "code": "5-144.5a",
              "system": "http://fhir.de/CodeSystem/bfarm/ops",
              "display": "Extrakapsuläre Extraktion der Linse [ECCE]: Linsenkernverflüssigung [Phakoemulsifikation] über kornealen Zugang: Mit Einführung einer kapselfixierten Hinterkammerlinse, monofokale Intraokularlinse"
            },
            {
              "code": "54885007",
              "system": "http://snomed.info/sct",
              "display": "Extraction of cataract"
            }
          ],
          "text": "Phakoemulsifikation mit IOL-Implantation"
        },
        "subject": {
          "reference": "Patient/patient-marfan-001"
        },
        "performedDateTime": "2024-11-12",
        "reasonReference": [
          {
            "reference": "Condition/condition-cataract"
          }
        ],
        "outcome": {
          "text": "Erfolgreiche Linsenimplantation ohne Komplikationen"
        },
        "note": [
          {
            "text": "Komplikationslose Phakoemulsifikation beider Augen mit Implantation monofokaler Intraokularlinsen"
          }
        ]
      },
      "request": {
        "method": "POST",
        "url": "Procedure"
      }
    },
    {
      "fullUrl": "urn:uuid:853a938b-bc21-4757-98cc-c33554ea26af",
      "resource": {
        "resourceType": "Procedure",
        "id": "procedure-aortic-planned",
        "status": "preparation",
        "category": {
          "coding": [
            {
              "code": "387713003",
              "system": "http://snomed.info/sct",
              "display": "Surgical procedure"
            }
          ]
        },
        "code": {
          "coding": [
            {
              "code": "5-354.0a",
              "system": "http://fhir.de/CodeSystem/bfarm/ops",
              "display": "Andere Operationen an Herzklappen: Aortenklappe: Rekonstruktion der Aortenwurzel mit Implantation einer Gefäßprothese nach David"
            },
            {
              "code": "428179006",
              "system": "http://snomed.info/sct",
              "display": "Replacement of aortic root"
            }
          ],
          "text": "Aortenwurzelersatz (David-Operation)"
        },
        "subject": {
          "reference": "Patient/patient-marfan-001"
        },
        "performedPeriod": {
          "start": "2025-03-15"
        },
        "reasonReference": [
          {
            "reference": "Condition/condition-marfan-clinical"
          }
        ],
        "note": [
          {
            "text": "Geplante klappensparende Aortenwurzelersatz-Operation nach David bei progredienter Aortenwurzeldilatation"
          }
        ]
      },
      "request": {
        "method": "POST",
        "url": "Procedure"
      }
    },
    {
      "fullUrl": "urn:uuid:8fb04be6-9930-4aec-8a5f-4ef9b904ae51",
      "resource": {
        "resourceType": "MedicationStatement",
        "id": "medication-losartan",
        "status": "active",
        "medicationCodeableConcept": {
          "coding": [
            {
              "code": "C09CA01",
              "system": "http://fhir.de/CodeSystem/bfarm/atc",
              "display": "Losartan"
            },
            {
              "code": "373567002",
              "system": "http://snomed.info/sct",
              "display": "Losartan"
            }
          ],
          "text": "Losartan 50mg"
        },
        "subject": {
          "reference": "Patient/patient-marfan-001"
        },
        "effectiveDateTime": "2024-12-15",
        "reasonReference": [
          {
            "reference": "Condition/condition-marfan-clinical"
          }
        ],
        "dosage": [
          {
            "text": "50mg einmal täglich",
            "route": {
              "coding": [
                {
                  "code": "26643006",
                  "system": "http://snomed.info/sct",
                  "display": "Oral route"
                }
              ]
            },
            "doseAndRate": [
              {
                "doseQuantity": {
                  "value": 50,
                  "code": "mg",
                  "system": "http://unitsofmeasure.org",
                  "unit": "mg"
                }
              }
            ],
            "timing": {
              "repeat": {
                "frequency": 1,
                "period": 1,
                "periodUnit": "d"
              }
            }
          }
        ],
        "note": [
          {
            "text": "Zur Progressionshemmung der Aortenwurzeldilatation bei Marfan-Syndrom"
          }
        ]
      },
      "request": {
        "method": "POST",
        "url": "MedicationStatement"
      }
    },
    {
      "fullUrl": "urn:uuid:35d41288-207b-4be7-967a-d92e295d1c75",
      "resource": {
        "resourceType": "ClinicalImpression",
        "id": "clinical-impression-seltene-assessment",
        "meta": {
          "profile": [
            "https://www.medizininformatik-initiative.de/fhir/ext/modul-seltene/StructureDefinition/mii-pr-seltene-clinical-impression|2026.0.0"
          ]
        },
        "status": "completed",
        "subject": {
          "reference": "Patient/patient-marfan-001"
        },
        "encounter": {
          "reference": "Encounter/encounter-cardiology"
        },
        "effectiveDateTime": "2024-12-15",
        "date": "2024-12-15",
        "summary": "19-jähriger Patient mit Z.n. Katarakt-OP im ZSE vorstellig. Kardiologische Mitbeurteilung zeigt: Aortenwurzeldilatation (48mm), AKI Grad II, MKI Grad I. Skelettale Merkmale (Hochwuchs 2,13m, Beinlängendifferenz) bestätigen Marfan-Syndrom. Klinische und genetische Diagnose gesichert.",
        "problem": [
          {
            "reference": "Condition/condition-marfan-suspected"
          },
          {
            "reference": "Condition/condition-marfan-clinical"
          },
          {
            "reference": "Condition/condition-marfan-genetic"
          }
        ],
        "finding": [
          {
            "itemReference": {
              "reference": "Condition/condition-marfan-clinical"
            }
          },
          {
            "itemReference": {
              "reference": "Condition/condition-marfan-genetic"
            }
          },
          {
            "itemCodeableConcept": {
              "coding": [
                {
                  "code": "251036003",
                  "system": "http://snomed.info/sct",
                  "display": "Aortic root dilatation"
                }
              ]
            },
            "itemReference": {
              "reference": "Observation/symptom-aortic-root"
            }
          },
          {
            "itemCodeableConcept": {
              "coding": [
                {
                  "code": "60234000",
                  "system": "http://snomed.info/sct",
                  "display": "Aortic valve regurgitation"
                }
              ]
            },
            "itemReference": {
              "reference": "Observation/symptom-aortic-regurg"
            }
          },
          {
            "itemCodeableConcept": {
              "coding": [
                {
                  "code": "48724000",
                  "system": "http://snomed.info/sct",
                  "display": "Mitral valve regurgitation"
                }
              ]
            },
            "itemReference": {
              "reference": "Observation/symptom-mitral-regurg"
            }
          },
          {
            "itemCodeableConcept": {
              "coding": [
                {
                  "code": "248328003",
                  "system": "http://snomed.info/sct",
                  "display": "Tall stature"
                }
              ]
            },
            "itemReference": {
              "reference": "Observation/observation-height-001"
            }
          },
          {
            "itemCodeableConcept": {
              "coding": [
                {
                  "code": "707738004",
                  "system": "http://snomed.info/sct",
                  "display": "Leg length discrepancy"
                }
              ]
            },
            "itemReference": {
              "reference": "Observation/observation-leg-asymmetry"
            }
          }
        ],
        "investigation": [
          {
            "code": {
              "text": "Echokardiographie"
            },
            "item": [
              {
                "reference": "Observation/observation-echo-aortic"
              },
              {
                "reference": "Observation/observation-echo-av"
              },
              {
                "reference": "Observation/observation-echo-mv"
              }
            ]
          }
        ],
        "prognosisCodeableConcept": [
          {
            "coding": [
              {
                "code": "67334001",
                "system": "http://snomed.info/sct",
                "display": "Guarded prognosis"
              }
            ]
          }
        ],
        "note": [
          {
            "text": "Katarakt in jungem Alter war Anlass für ZSE-Konsultation. Marfan-Syndrom klinisch und genetisch (FBN1-Mutation) bestätigt. OP-Indikation für Aortenwurzelersatz durch Kardiologie gestellt. Medikamentöse Therapie mit Losartan eingeleitet."
          },
          {
            "text": "Multidisziplinäre Betreuung im ZSE etabliert. Regelmäßige kardiologische Kontrollen alle 6 Monate. Genetische Beratung für Familienplanung empfohlen."
          }
        ]
      },
      "request": {
        "method": "POST",
        "url": "ClinicalImpression"
      }
    },
    {
      "fullUrl": "urn:uuid:258f0a21-4c6e-473d-87e9-36a5bf01bb1a",
      "resource": {
        "resourceType": "Encounter",
        "id": "encounter-ophthalmology",
        "status": "finished",
        "class": {
          "code": "AMB",
          "system": "http://terminology.hl7.org/CodeSystem/v3-ActCode",
          "display": "ambulatory"
        },
        "type": [
          {
            "coding": [
              {
                "code": "36228007",
                "system": "http://snomed.info/sct",
                "display": "Ophthalmic examination and evaluation"
              }
            ]
          }
        ],
        "subject": {
          "reference": "Patient/patient-marfan-001"
        },
        "period": {
          "start": "2024-10-15",
          "end": "2024-10-15"
        },
        "diagnosis": [
          {
            "condition": {
              "reference": "Condition/condition-cataract"
            },
            "use": {
              "coding": [
                {
                  "code": "AD",
                  "system": "http://terminology.hl7.org/CodeSystem/diagnosis-role",
                  "display": "Admission diagnosis"
                }
              ]
            }
          }
        ]
      },
      "request": {
        "method": "POST",
        "url": "Encounter"
      }
    },
    {
      "fullUrl": "urn:uuid:70504d04-a6f0-4aa8-bd20-9b475b94438c",
      "resource": {
        "resourceType": "Encounter",
        "id": "encounter-cataract-surgery",
        "status": "finished",
        "class": {
          "code": "SS",
          "system": "http://terminology.hl7.org/CodeSystem/v3-ActCode",
          "display": "short stay"
        },
        "type": [
          {
            "coding": [
              {
                "code": "305408004",
                "system": "http://snomed.info/sct",
                "display": "Admission to surgical department"
              }
            ]
          }
        ],
        "subject": {
          "reference": "Patient/patient-marfan-001"
        },
        "period": {
          "start": "2024-11-12T07:00:00Z",
          "end": "2024-11-12T15:00:00Z"
        },
        "diagnosis": [
          {
            "condition": {
              "reference": "Condition/condition-cataract"
            },
            "use": {
              "coding": [
                {
                  "code": "CC",
                  "system": "http://terminology.hl7.org/CodeSystem/diagnosis-role",
                  "display": "Chief complaint"
                }
              ]
            }
          }
        ]
      },
      "request": {
        "method": "POST",
        "url": "Encounter"
      }
    },
    {
      "fullUrl": "urn:uuid:c90d7e24-a787-4d1b-b402-36b64362cc13",
      "resource": {
        "resourceType": "Encounter",
        "id": "encounter-cardiology",
        "status": "finished",
        "class": {
          "code": "AMB",
          "system": "http://terminology.hl7.org/CodeSystem/v3-ActCode",
          "display": "ambulatory"
        },
        "type": [
          {
            "coding": [
              {
                "code": "185228002",
                "system": "http://snomed.info/sct",
                "display": "Seen in cardiac clinic (finding)"
              }
            ]
          }
        ],
        "subject": {
          "reference": "Patient/patient-marfan-001"
        },
        "period": {
          "start": "2024-12-15",
          "end": "2024-12-15"
        },
        "diagnosis": [
          {
            "condition": {
              "reference": "Condition/condition-marfan-clinical"
            },
            "use": {
              "coding": [
                {
                  "code": "AD",
                  "system": "http://terminology.hl7.org/CodeSystem/diagnosis-role",
                  "display": "Admission diagnosis"
                }
              ]
            }
          }
        ],
        "reasonCode": [
          {
            "coding": [
              {
                "code": "29857009",
                "system": "http://snomed.info/sct",
                "display": "Chest pain"
              }
            ],
            "text": "Thoraxschmerzen bei V.a. Marfan-Syndrom"
          }
        ]
      },
      "request": {
        "method": "POST",
        "url": "Encounter"
      }
    },
    {
      "fullUrl": "urn:uuid:1ec76c96-9e7d-403a-9ea5-1f2eaea6ef28",
      "resource": {
        "resourceType": "Encounter",
        "id": "encounter-surgery-planned",
        "status": "planned",
        "class": {
          "code": "IMP",
          "system": "http://terminology.hl7.org/CodeSystem/v3-ActCode",
          "display": "inpatient encounter"
        },
        "type": [
          {
            "coding": [
              {
                "code": "305357000",
                "system": "http://snomed.info/sct",
                "display": "Admission to cardiology department"
              }
            ]
          }
        ],
        "subject": {
          "reference": "Patient/patient-marfan-001"
        },
        "period": {
          "start": "2025-03-15"
        },
        "diagnosis": [
          {
            "condition": {
              "reference": "Condition/condition-marfan-clinical"
            },
            "use": {
              "coding": [
                {
                  "code": "CC",
                  "system": "http://terminology.hl7.org/CodeSystem/diagnosis-role",
                  "display": "Chief complaint"
                }
              ]
            }
          }
        ],
        "reasonCode": [
          {
            "text": "Elektive Aortenwurzelersatz-Operation bei Marfan-Syndrom"
          }
        ]
      },
      "request": {
        "method": "POST",
        "url": "Encounter"
      }
    }
  ]
}
