{
  "resourceType": "Bundle",
  "id": "bundle-marfan-complete",
  "type": "transaction",
  "timestamp": "2024-12-15T14:00:00Z",
  "entry": [
    {
      "fullUrl": "urn:uuid:patient-marfan-001",
      "resource": {
        "resourceType": "Patient",
        "id": "patient-marfan-001",
        "identifier": [
          {
            "system": "http://example.org/patient-id",
            "value": "MRF-2024-001"
          }
        ],
        "gender": "male",
        "birthDate": "2005-01-01"
      },
      "request": {
        "method": "POST",
        "url": "Patient"
      }
    },
    {
      "fullUrl": "urn:uuid:condition-marfan-suspected",
      "resource": {
        "resourceType": "Condition",
        "id": "condition-marfan-suspected",
        "meta": {
          "profile": [
            "https://www.medizininformatik-initiative.de/fhir/ext/modul-seltene/StructureDefinition/mii-pr-se-clinical-diagnosis"
          ]
        },
        "code": {
          "coding": [
            {
              "system": "http://fhir.de/CodeSystem/bfarm/icd-10-gm",
              "code": "Q87.4",
              "display": "Marfan-Syndrom",
              "version": "2024"
            },
            {
              "system": "http://snomed.info/sct",
              "code": "19346006",
              "display": "Marfan syndrome"
            },
            {
              "system": "http://www.orpha.net",
              "code": "558",
              "display": "Marfan syndrome"
            }
          ],
          "text": "Verdacht auf Marfan-Syndrom"
        },
        "clinicalStatus": {
          "coding": [
            {
              "code": "active",
              "system": "http://terminology.hl7.org/CodeSystem/condition-clinical"
            }
          ]
        },
        "verificationStatus": {
          "coding": [
            {
              "code": "provisional",
              "system": "http://terminology.hl7.org/CodeSystem/condition-ver-status"
            }
          ]
        },
        "category": [
          {
            "coding": [
              {
                "code": "encounter-diagnosis",
                "system": "http://terminology.hl7.org/CodeSystem/condition-category"
              }
            ]
          }
        ],
        "subject": {
          "reference": "Patient/patient-marfan-001"
        },
        "extension": [
          {
            "url": "https://www.medizininformatik-initiative.de/fhir/core/modul-diagnose/StructureDefinition/mii-ex-diagnose-feststellungsdatum",
            "valueDateTime": "2024-12-10"
          }
        ],
        "recordedDate": "2024-12-10",
        "note": [
          {
            "text": "Verdacht auf Marfan-Syndrom aufgrund klinischer Präsentation"
          }
        ]
      },
      "request": {
        "method": "POST",
        "url": "Condition"
      }
    },
    {
      "fullUrl": "urn:uuid:condition-marfan-clinical",
      "resource": {
        "resourceType": "Condition",
        "id": "condition-marfan-clinical",
        "meta": {
          "profile": [
            "https://www.medizininformatik-initiative.de/fhir/ext/modul-seltene/StructureDefinition/mii-pr-se-clinical-diagnosis"
          ]
        },
        "code": {
          "coding": [
            {
              "system": "http://fhir.de/CodeSystem/bfarm/icd-10-gm",
              "code": "Q87.4",
              "display": "Marfan-Syndrom",
              "version": "2024"
            },
            {
              "system": "http://snomed.info/sct",
              "code": "19346006",
              "display": "Marfan syndrome"
            },
            {
              "system": "http://www.orpha.net",
              "code": "558",
              "display": "Marfan syndrome"
            },
            {
              "system": "http://hpo.jax.org/app/",
              "code": "HP:0008138",
              "display": "Marfan syndrome"
            }
          ],
          "text": "Marfan-Syndrom"
        },
        "clinicalStatus": {
          "coding": [
            {
              "code": "active",
              "system": "http://terminology.hl7.org/CodeSystem/condition-clinical"
            }
          ]
        },
        "verificationStatus": {
          "coding": [
            {
              "code": "confirmed",
              "system": "http://terminology.hl7.org/CodeSystem/condition-ver-status"
            }
          ]
        },
        "category": [
          {
            "coding": [
              {
                "code": "encounter-diagnosis",
                "system": "http://terminology.hl7.org/CodeSystem/condition-category"
              }
            ]
          }
        ],
        "subject": {
          "reference": "Patient/patient-marfan-001"
        },
        "extension": [
          {
            "url": "https://www.medizininformatik-initiative.de/fhir/core/modul-diagnose/StructureDefinition/mii-ex-diagnose-feststellungsdatum",
            "valueDateTime": "2024-12-15"
          }
        ],
        "recordedDate": "2024-12-15",
        "encounter": {
          "reference": "Encounter/encounter-cardiology"
        },
        "evidence": [
          {
            "code": [
              {
                "coding": [
                  {
                    "code": "HP:0002616",
                    "system": "http://hpo.jax.org/app/",
                    "display": "Aortic root aneurysm"
                  }
                ]
              }
            ],
            "detail": [
              {
                "reference": "Observation/symptom-aortic-root"
              }
            ]
          },
          {
            "code": [
              {
                "coding": [
                  {
                    "code": "HP:0001659",
                    "system": "http://hpo.jax.org/app/",
                    "display": "Aortic regurgitation"
                  }
                ]
              }
            ],
            "detail": [
              {
                "reference": "Observation/symptom-aortic-regurg"
              }
            ]
          },
          {
            "code": [
              {
                "coding": [
                  {
                    "code": "HP:0001653",
                    "system": "http://hpo.jax.org/app/",
                    "display": "Mitral regurgitation"
                  }
                ]
              }
            ],
            "detail": [
              {
                "reference": "Observation/symptom-mitral-regurg"
              }
            ]
          },
          {
            "code": [
              {
                "coding": [
                  {
                    "code": "HP:0000098",
                    "system": "http://hpo.jax.org/app/",
                    "display": "Tall stature"
                  }
                ]
              }
            ],
            "detail": [
              {
                "reference": "Observation/observation-height-001"
              }
            ]
          },
          {
            "code": [
              {
                "coding": [
                  {
                    "code": "HP:0100559",
                    "system": "http://hpo.jax.org/app/",
                    "display": "Lower limb asymmetry"
                  }
                ]
              }
            ],
            "detail": [
              {
                "reference": "Observation/observation-leg-asymmetry"
              }
            ]
          },
          {
            "code": [
              {
                "coding": [
                  {
                    "code": "HP:0100749",
                    "system": "http://hpo.jax.org/app/",
                    "display": "Chest pain"
                  }
                ]
              }
            ],
            "detail": [
              {
                "reference": "Observation/symptom-chest-pain"
              }
            ]
          }
        ],
        "note": [
          {
            "text": "Marfan-Syndrom klinisch diagnostiziert basierend auf kardialen Befunden, Skelettmerkmalen und ophthalmologischer Manifestation"
          }
        ]
      },
      "request": {
        "method": "POST",
        "url": "Condition"
      }
    },
    {
      "fullUrl": "urn:uuid:condition-marfan-genetic",
      "resource": {
        "resourceType": "Condition",
        "id": "condition-marfan-genetic",
        "meta": {
          "profile": [
            "https://www.medizininformatik-initiative.de/fhir/ext/modul-seltene/StructureDefinition/mii-pr-se-genetic-diagnosis"
          ]
        },
        "category": [
          {
            "coding": [
              {
                "code": "782964007",
                "system": "http://snomed.info/sct",
                "display": "Genetic disease"
              }
            ]
          }
        ],
        "code": {
          "coding": [
            {
              "system": "http://fhir.de/CodeSystem/bfarm/icd-10-gm",
              "code": "Q87.4",
              "display": "Marfan-Syndrom",
              "version": "2024"
            },
            {
              "system": "http://snomed.info/sct",
              "code": "19346006",
              "display": "Marfan syndrome"
            },
            {
              "system": "http://www.orpha.net",
              "code": "558",
              "display": "Marfan syndrome"
            },
            {
              "system": "http://omim.org",
              "code": "154700",
              "display": "Marfan syndrome"
            }
          ],
          "text": "Marfan-Syndrom - genetisch bestätigt"
        },
        "clinicalStatus": {
          "coding": [
            {
              "code": "active",
              "system": "http://terminology.hl7.org/CodeSystem/condition-clinical"
            }
          ]
        },
        "verificationStatus": {
          "coding": [
            {
              "code": "confirmed",
              "system": "http://terminology.hl7.org/CodeSystem/condition-ver-status"
            }
          ]
        },
        "subject": {
          "reference": "Patient/patient-marfan-001"
        },
        "extension": [
          {
            "url": "https://www.medizininformatik-initiative.de/fhir/core/modul-diagnose/StructureDefinition/mii-ex-diagnose-feststellungsdatum",
            "valueDateTime": "2024-12-20"
          }
        ],
        "recordedDate": "2024-12-20",
        "evidence": [
          {
            "code": [
              {
                "coding": [
                  {
                    "code": "410545006",
                    "system": "http://snomed.info/sct",
                    "display": "Genetic finding"
                  }
                ]
              }
            ],
            "detail": [
              {
                "reference": "Observation/variant-fbn1-001"
              }
            ]
          }
        ],
        "note": [
          {
            "text": "FBN1-Mutation c.3217G>A (p.Gly1073Arg) nachgewiesen, krankheitsursächlich. Genetische Diagnose existiert parallel zur klinischen Diagnose."
          }
        ]
      },
      "request": {
        "method": "POST",
        "url": "Condition"
      }
    },
    {
      "fullUrl": "urn:uuid:condition-cataract",
      "resource": {
        "resourceType": "Condition",
        "id": "condition-cataract",
        "meta": {
          "profile": [
            "https://www.medizininformatik-initiative.de/fhir/ext/modul-seltene/StructureDefinition/mii-pr-se-clinical-diagnosis"
          ]
        },
        "code": {
          "coding": [
            {
              "system": "http://fhir.de/CodeSystem/bfarm/icd-10-gm",
              "code": "H26.9",
              "display": "Katarakt, nicht näher bezeichnet",
              "version": "2024"
            },
            {
              "system": "http://snomed.info/sct",
              "code": "193570009",
              "display": "Cataract"
            },
            {
              "system": "http://hpo.jax.org/app/",
              "code": "HP:0000518",
              "display": "Cataract"
            }
          ],
          "text": "Katarakt bilateral"
        },
        "clinicalStatus": {
          "coding": [
            {
              "code": "resolved",
              "system": "http://terminology.hl7.org/CodeSystem/condition-clinical"
            }
          ]
        },
        "verificationStatus": {
          "coding": [
            {
              "code": "confirmed",
              "system": "http://terminology.hl7.org/CodeSystem/condition-ver-status"
            }
          ]
        },
        "category": [
          {
            "coding": [
              {
                "code": "encounter-diagnosis",
                "system": "http://terminology.hl7.org/CodeSystem/condition-category"
              }
            ]
          }
        ],
        "subject": {
          "reference": "Patient/patient-marfan-001"
        },
        "extension": [
          {
            "url": "https://www.medizininformatik-initiative.de/fhir/core/modul-diagnose/StructureDefinition/mii-ex-diagnose-feststellungsdatum",
            "valueDateTime": "2024-10-15"
          }
        ],
        "recordedDate": "2024-10-15",
        "encounter": {
          "reference": "Encounter/encounter-ophthalmology"
        },
        "abatementDateTime": "2024-11-12",
        "evidence": [
          {
            "code": [
              {
                "coding": [
                  {
                    "code": "HP:0000518",
                    "system": "http://hpo.jax.org/app/",
                    "display": "Cataract"
                  }
                ]
              }
            ],
            "detail": [
              {
                "reference": "Observation/symptom-cataract"
              }
            ]
          }
        ],
        "note": [
          {
            "text": "Katarakt bilateral, operativ versorgt"
          }
        ]
      },
      "request": {
        "method": "POST",
        "url": "Condition"
      }
    },
    {
      "fullUrl": "urn:uuid:observation-height-001",
      "resource": {
        "resourceType": "Observation",
        "id": "observation-height-001",
        "status": "final",
        "category": [
          {
            "coding": [
              {
                "code": "vital-signs",
                "system": "http://terminology.hl7.org/CodeSystem/observation-category"
              }
            ]
          }
        ],
        "code": {
          "coding": [
            {
              "code": "8302-2",
              "system": "http://loinc.org",
              "display": "Body height"
            }
          ]
        },
        "subject": {
          "reference": "Patient/patient-marfan-001"
        },
        "effectiveDateTime": "2024-12-15",
        "valueQuantity": {
          "value": 213,
          "code": "cm",
          "system": "http://unitsofmeasure.org",
          "unit": "cm"
        },
        "interpretation": [
          {
            "coding": [
              {
                "code": "H",
                "system": "http://terminology.hl7.org/CodeSystem/v3-ObservationInterpretation",
                "display": "High"
              }
            ]
          }
        ],
        "bodySite": {
          "coding": [
            {
              "code": "38266002",
              "system": "http://snomed.info/sct",
              "display": "Entire body"
            }
          ]
        },
        "component": [
          {
            "code": {
              "coding": [
                {
                  "code": "HP:0000098",
                  "system": "http://hpo.jax.org/app/",
                  "display": "Tall stature"
                }
              ]
            },
            "valueString": "Pathologischer Hochwuchs >99. Perzentile"
          }
        ]
      },
      "request": {
        "method": "POST",
        "url": "Observation"
      }
    },
    {
      "fullUrl": "urn:uuid:observation-leg-asymmetry",
      "resource": {
        "resourceType": "Observation",
        "id": "observation-leg-asymmetry",
        "status": "final",
        "category": [
          {
            "coding": [
              {
                "code": "exam",
                "system": "http://terminology.hl7.org/CodeSystem/observation-category"
              }
            ]
          }
        ],
        "code": {
          "coding": [
            {
              "code": "271902003",
              "system": "http://snomed.info/sct",
              "display": "Leg length discrepancy"
            }
          ]
        },
        "subject": {
          "reference": "Patient/patient-marfan-001"
        },
        "effectiveDateTime": "2024-12-15",
        "valueCodeableConcept": {
          "coding": [
            {
              "code": "7771000",
              "system": "http://snomed.info/sct",
              "display": "Left"
            }
          ]
        },
        "interpretation": [
          {
            "coding": [
              {
                "code": "A",
                "system": "http://terminology.hl7.org/CodeSystem/v3-ObservationInterpretation",
                "display": "Abnormal"
              }
            ]
          }
        ],
        "bodySite": {
          "coding": [
            {
              "code": "30021000",
              "system": "http://snomed.info/sct",
              "display": "Lower limb structure"
            }
          ]
        },
        "component": [
          {
            "code": {
              "coding": [
                {
                  "code": "HP:0100559",
                  "system": "http://hpo.jax.org/app/",
                  "display": "Lower limb asymmetry"
                }
              ]
            },
            "valueString": "Rechtes Bein verkürzt"
          }
        ]
      },
      "request": {
        "method": "POST",
        "url": "Observation"
      }
    },
    {
      "fullUrl": "urn:uuid:symptom-chest-pain",
      "resource": {
        "resourceType": "Observation",
        "id": "symptom-chest-pain",
        "status": "final",
        "category": [
          {
            "coding": [
              {
                "code": "exam",
                "system": "http://terminology.hl7.org/CodeSystem/observation-category"
              }
            ]
          }
        ],
        "code": {
          "coding": [
            {
              "code": "HP:0100749",
              "system": "http://hpo.jax.org/app/",
              "display": "Chest pain"
            },
            {
              "code": "29857009",
              "system": "http://snomed.info/sct",
              "display": "Chest pain"
            }
          ],
          "text": "Thoraxschmerzen"
        },
        "subject": {
          "reference": "Patient/patient-marfan-001"
        },
        "effectiveDateTime": "2024-12-15",
        "valueCodeableConcept": {
          "coding": [
            {
              "code": "255212004",
              "system": "http://snomed.info/sct",
              "display": "Present"
            }
          ]
        },
        "interpretation": [
          {
            "coding": [
              {
                "code": "A",
                "system": "http://terminology.hl7.org/CodeSystem/v3-ObservationInterpretation",
                "display": "Abnormal"
              }
            ]
          }
        ]
      },
      "request": {
        "method": "POST",
        "url": "Observation"
      }
    },
    {
      "fullUrl": "urn:uuid:symptom-cataract",
      "resource": {
        "resourceType": "Observation",
        "id": "symptom-cataract",
        "status": "final",
        "category": [
          {
            "coding": [
              {
                "code": "exam",
                "system": "http://terminology.hl7.org/CodeSystem/observation-category"
              }
            ]
          }
        ],
        "code": {
          "coding": [
            {
              "code": "HP:0000518",
              "system": "http://hpo.jax.org/app/",
              "display": "Cataract"
            },
            {
              "code": "193570009",
              "system": "http://snomed.info/sct",
              "display": "Cataract"
            }
          ],
          "text": "Katarakt bilateral"
        },
        "subject": {
          "reference": "Patient/patient-marfan-001"
        },
        "effectiveDateTime": "2024-10-15",
        "valueCodeableConcept": {
          "coding": [
            {
              "code": "51440002",
              "system": "http://snomed.info/sct",
              "display": "Bilateral"
            }
          ]
        },
        "interpretation": [
          {
            "coding": [
              {
                "code": "A",
                "system": "http://terminology.hl7.org/CodeSystem/v3-ObservationInterpretation",
                "display": "Abnormal"
              }
            ]
          }
        ],
        "bodySite": {
          "coding": [
            {
              "code": "81745001",
              "system": "http://snomed.info/sct",
              "display": "Eye region structure"
            }
          ]
        }
      },
      "request": {
        "method": "POST",
        "url": "Observation"
      }
    },
    {
      "fullUrl": "urn:uuid:symptom-aortic-root",
      "resource": {
        "resourceType": "Observation",
        "id": "symptom-aortic-root",
        "status": "final",
        "category": [
          {
            "coding": [
              {
                "code": "imaging",
                "system": "http://terminology.hl7.org/CodeSystem/observation-category"
              }
            ]
          }
        ],
        "code": {
          "coding": [
            {
              "code": "HP:0002616",
              "system": "http://hpo.jax.org/app/",
              "display": "Aortic root aneurysm"
            },
            {
              "code": "60234000",
              "system": "http://snomed.info/sct",
              "display": "Aortic root dilatation"
            }
          ],
          "text": "Aortenwurzeldilatation"
        },
        "subject": {
          "reference": "Patient/patient-marfan-001"
        },
        "effectiveDateTime": "2024-12-15",
        "valueQuantity": {
          "value": 48,
          "code": "mm",
          "system": "http://unitsofmeasure.org",
          "unit": "mm"
        },
        "interpretation": [
          {
            "coding": [
              {
                "code": "H",
                "system": "http://terminology.hl7.org/CodeSystem/v3-ObservationInterpretation",
                "display": "High"
              }
            ]
          }
        ],
        "referenceRange": [
          {
            "high": {
              "value": 40,
              "unit": "mm"
            },
            "text": "Normwert <40mm"
          }
        ]
      },
      "request": {
        "method": "POST",
        "url": "Observation"
      }
    },
    {
      "fullUrl": "urn:uuid:symptom-aortic-regurg",
      "resource": {
        "resourceType": "Observation",
        "id": "symptom-aortic-regurg",
        "status": "final",
        "category": [
          {
            "coding": [
              {
                "code": "imaging",
                "system": "http://terminology.hl7.org/CodeSystem/observation-category"
              }
            ]
          }
        ],
        "code": {
          "coding": [
            {
              "code": "HP:0001659",
              "system": "http://hpo.jax.org/app/",
              "display": "Aortic regurgitation"
            },
            {
              "code": "60573004",
              "system": "http://snomed.info/sct",
              "display": "Aortic valve regurgitation"
            }
          ],
          "text": "Aortenklappeninsuffizienz"
        },
        "subject": {
          "reference": "Patient/patient-marfan-001"
        },
        "effectiveDateTime": "2024-12-15",
        "valueCodeableConcept": {
          "coding": [
            {
              "code": "6736007",
              "system": "http://snomed.info/sct",
              "display": "Moderate"
            }
          ],
          "text": "Grad II"
        },
        "interpretation": [
          {
            "coding": [
              {
                "code": "A",
                "system": "http://terminology.hl7.org/CodeSystem/v3-ObservationInterpretation",
                "display": "Abnormal"
              }
            ]
          }
        ]
      },
      "request": {
        "method": "POST",
        "url": "Observation"
      }
    },
    {
      "fullUrl": "urn:uuid:symptom-mitral-regurg",
      "resource": {
        "resourceType": "Observation",
        "id": "symptom-mitral-regurg",
        "status": "final",
        "category": [
          {
            "coding": [
              {
                "code": "imaging",
                "system": "http://terminology.hl7.org/CodeSystem/observation-category"
              }
            ]
          }
        ],
        "code": {
          "coding": [
            {
              "code": "HP:0001653",
              "system": "http://hpo.jax.org/app/",
              "display": "Mitral regurgitation"
            },
            {
              "code": "48724000",
              "system": "http://snomed.info/sct",
              "display": "Mitral valve regurgitation"
            }
          ],
          "text": "Mitralklappeninsuffizienz"
        },
        "subject": {
          "reference": "Patient/patient-marfan-001"
        },
        "effectiveDateTime": "2024-12-15",
        "valueCodeableConcept": {
          "coding": [
            {
              "code": "255604002",
              "system": "http://snomed.info/sct",
              "display": "Mild"
            }
          ],
          "text": "Grad I"
        },
        "interpretation": [
          {
            "coding": [
              {
                "code": "A",
                "system": "http://terminology.hl7.org/CodeSystem/v3-ObservationInterpretation",
                "display": "Abnormal"
              }
            ]
          }
        ]
      },
      "request": {
        "method": "POST",
        "url": "Observation"
      }
    },
    {
      "fullUrl": "urn:uuid:variant-fbn1-001",
      "resource": {
        "resourceType": "Observation",
        "id": "variant-fbn1-001",
        "status": "final",
        "category": [
          {
            "coding": [
              {
                "code": "laboratory",
                "system": "http://terminology.hl7.org/CodeSystem/observation-category"
              }
            ]
          }
        ],
        "code": {
          "coding": [
            {
              "code": "55233-1",
              "system": "http://loinc.org",
              "display": "Genetic variant assessment"
            }
          ]
        },
        "subject": {
          "reference": "Patient/patient-marfan-001"
        },
        "effectiveDateTime": "2024-12-20",
        "valueCodeableConcept": {
          "coding": [
            {
              "code": "10828004",
              "system": "http://snomed.info/sct",
              "display": "Positive"
            }
          ]
        },
        "component": [
          {
            "code": {
              "coding": [
                {
                  "code": "48018-6",
                  "system": "http://loinc.org",
                  "display": "Gene studied [ID]"
                }
              ]
            },
            "valueCodeableConcept": {
              "coding": [
                {
                  "code": "2200",
                  "system": "http://www.genenames.org/geneId",
                  "display": "FBN1"
                }
              ]
            }
          },
          {
            "code": {
              "coding": [
                {
                  "code": "48004-6",
                  "system": "http://loinc.org",
                  "display": "DNA change (c.HGVS)"
                }
              ]
            },
            "valueCodeableConcept": {
              "text": "c.3217G>A"
            }
          },
          {
            "code": {
              "coding": [
                {
                  "code": "48005-3",
                  "system": "http://loinc.org",
                  "display": "Amino acid change (pHGVS)"
                }
              ]
            },
            "valueCodeableConcept": {
              "text": "p.Gly1073Arg"
            }
          },
          {
            "code": {
              "coding": [
                {
                  "code": "53037-8",
                  "system": "http://loinc.org",
                  "display": "Genetic variant clinical significance"
                }
              ]
            },
            "valueCodeableConcept": {
              "coding": [
                {
                  "code": "LA6668-3",
                  "system": "http://loinc.org",
                  "display": "Pathogenic"
                }
              ]
            }
          }
        ],
        "interpretation": [
          {
            "coding": [
              {
                "code": "POS",
                "system": "http://terminology.hl7.org/CodeSystem/v3-ObservationInterpretation",
                "display": "Positive"
              }
            ]
          }
        ],
        "note": [
          {
            "text": "Pathogene FBN1-Mutation, krankheitsursächlich für Marfan-Syndrom"
          }
        ]
      },
      "request": {
        "method": "POST",
        "url": "Observation"
      }
    },
    {
      "fullUrl": "urn:uuid:observation-echo-aortic",
      "resource": {
        "resourceType": "Observation",
        "id": "observation-echo-aortic",
        "status": "final",
        "category": [
          {
            "coding": [
              {
                "code": "imaging",
                "system": "http://terminology.hl7.org/CodeSystem/observation-category"
              }
            ]
          }
        ],
        "code": {
          "coding": [
            {
              "code": "79992-2",
              "system": "http://loinc.org",
              "display": "Aortic root diameter by US"
            }
          ]
        },
        "subject": {
          "reference": "Patient/patient-marfan-001"
        },
        "effectiveDateTime": "2024-12-15",
        "valueQuantity": {
          "value": 48,
          "code": "mm",
          "system": "http://unitsofmeasure.org",
          "unit": "mm"
        },
        "interpretation": [
          {
            "coding": [
              {
                "code": "H",
                "system": "http://terminology.hl7.org/CodeSystem/v3-ObservationInterpretation",
                "display": "High"
              }
            ]
          }
        ],
        "method": {
          "coding": [
            {
              "code": "40701008",
              "system": "http://snomed.info/sct",
              "display": "Echocardiography"
            }
          ]
        }
      },
      "request": {
        "method": "POST",
        "url": "Observation"
      }
    },
    {
      "fullUrl": "urn:uuid:observation-echo-av",
      "resource": {
        "resourceType": "Observation",
        "id": "observation-echo-av",
        "status": "final",
        "category": [
          {
            "coding": [
              {
                "code": "imaging",
                "system": "http://terminology.hl7.org/CodeSystem/observation-category"
              }
            ]
          }
        ],
        "code": {
          "coding": [
            {
              "code": "80140-5",
              "system": "http://loinc.org",
              "display": "Aortic valve regurgitation severity by US"
            }
          ]
        },
        "subject": {
          "reference": "Patient/patient-marfan-001"
        },
        "effectiveDateTime": "2024-12-15",
        "valueCodeableConcept": {
          "text": "Grad II"
        },
        "interpretation": [
          {
            "coding": [
              {
                "code": "A",
                "system": "http://terminology.hl7.org/CodeSystem/v3-ObservationInterpretation",
                "display": "Abnormal"
              }
            ]
          }
        ],
        "method": {
          "coding": [
            {
              "code": "40701008",
              "system": "http://snomed.info/sct",
              "display": "Echocardiography"
            }
          ]
        }
      },
      "request": {
        "method": "POST",
        "url": "Observation"
      }
    },
    {
      "fullUrl": "urn:uuid:observation-echo-mv",
      "resource": {
        "resourceType": "Observation",
        "id": "observation-echo-mv",
        "status": "final",
        "category": [
          {
            "coding": [
              {
                "code": "imaging",
                "system": "http://terminology.hl7.org/CodeSystem/observation-category"
              }
            ]
          }
        ],
        "code": {
          "coding": [
            {
              "code": "80186-8",
              "system": "http://loinc.org",
              "display": "Mitral valve regurgitation severity by US"
            }
          ]
        },
        "subject": {
          "reference": "Patient/patient-marfan-001"
        },
        "effectiveDateTime": "2024-12-15",
        "valueCodeableConcept": {
          "text": "Grad I"
        },
        "interpretation": [
          {
            "coding": [
              {
                "code": "A",
                "system": "http://terminology.hl7.org/CodeSystem/v3-ObservationInterpretation",
                "display": "Abnormal"
              }
            ]
          }
        ],
        "method": {
          "coding": [
            {
              "code": "40701008",
              "system": "http://snomed.info/sct",
              "display": "Echocardiography"
            }
          ]
        }
      },
      "request": {
        "method": "POST",
        "url": "Observation"
      }
    },
    {
      "fullUrl": "urn:uuid:procedure-cataract-surgery",
      "resource": {
        "resourceType": "Procedure",
        "id": "procedure-cataract-surgery",
        "status": "completed",
        "category": {
          "coding": [
            {
              "code": "387713003",
              "system": "http://snomed.info/sct",
              "display": "Surgical procedure"
            }
          ]
        },
        "code": {
          "coding": [
            {
              "code": "5-144.5a",
              "system": "http://fhir.de/CodeSystem/bfarm/ops",
              "display": "Extrakapsuläre Extraktion der Linse [ECCE]: Phakoemulsifikation: Mit Einführung einer kapselfixierten Hinterkammerlinse, monofokale Intraokularlinse"
            },
            {
              "code": "54885007",
              "system": "http://snomed.info/sct",
              "display": "Phacoemulsification of cataract with intraocular lens implantation"
            }
          ],
          "text": "Phakoemulsifikation mit IOL-Implantation"
        },
        "subject": {
          "reference": "Patient/patient-marfan-001"
        },
        "performedDateTime": "2024-11-12",
        "reasonReference": [
          {
            "reference": "Condition/condition-cataract"
          }
        ],
        "outcome": {
          "text": "Erfolgreiche Linsenimplantation ohne Komplikationen"
        },
        "note": [
          {
            "text": "Komplikationslose Phakoemulsifikation beider Augen mit Implantation monofokaler Intraokularlinsen"
          }
        ]
      },
      "request": {
        "method": "POST",
        "url": "Procedure"
      }
    },
    {
      "fullUrl": "urn:uuid:procedure-aortic-planned",
      "resource": {
        "resourceType": "Procedure",
        "id": "procedure-aortic-planned",
        "status": "planned",
        "category": {
          "coding": [
            {
              "code": "387713003",
              "system": "http://snomed.info/sct",
              "display": "Surgical procedure"
            }
          ]
        },
        "code": {
          "coding": [
            {
              "code": "5-354.0a",
              "system": "http://fhir.de/CodeSystem/bfarm/ops",
              "display": "Andere Operationen an Herzklappen: Aortenklappe: Klappenrekonstruktion"
            },
            {
              "code": "119564002",
              "system": "http://snomed.info/sct",
              "display": "Aortic root replacement"
            }
          ],
          "text": "Aortenwurzelersatz (David-Operation)"
        },
        "subject": {
          "reference": "Patient/patient-marfan-001"
        },
        "performedPeriod": {
          "start": "2025-03-15"
        },
        "reasonReference": [
          {
            "reference": "Condition/condition-marfan-clinical"
          }
        ],
        "note": [
          {
            "text": "Geplante klappensparende Aortenwurzelersatz-Operation nach David bei progredienter Aortenwurzeldilatation"
          }
        ]
      },
      "request": {
        "method": "POST",
        "url": "Procedure"
      }
    },
    {
      "fullUrl": "urn:uuid:medication-losartan",
      "resource": {
        "resourceType": "MedicationStatement",
        "id": "medication-losartan",
        "status": "active",
        "medicationCodeableConcept": {
          "coding": [
            {
              "code": "C09CA01",
              "system": "http://www.whocc.no/atc",
              "display": "Losartan"
            },
            {
              "code": "387069000",
              "system": "http://snomed.info/sct",
              "display": "Losartan"
            }
          ],
          "text": "Losartan 50mg"
        },
        "subject": {
          "reference": "Patient/patient-marfan-001"
        },
        "effectiveDateTime": "2024-12-15",
        "reasonReference": [
          {
            "reference": "Condition/condition-marfan-clinical"
          }
        ],
        "dosage": [
          {
            "text": "50mg einmal täglich",
            "route": {
              "coding": [
                {
                  "code": "26643006",
                  "system": "http://snomed.info/sct",
                  "display": "Oral route"
                }
              ]
            },
            "doseAndRate": [
              {
                "doseQuantity": {
                  "value": 50,
                  "code": "mg",
                  "system": "http://unitsofmeasure.org",
                  "unit": "mg"
                }
              }
            ],
            "timing": {
              "repeat": {
                "frequency": 1,
                "period": 1,
                "periodUnit": "d"
              }
            }
          }
        ],
        "note": [
          {
            "text": "Zur Progressionshemmung der Aortenwurzeldilatation bei Marfan-Syndrom"
          }
        ]
      },
      "request": {
        "method": "POST",
        "url": "MedicationStatement"
      }
    },
    {
      "fullUrl": "urn:uuid:clinical-impression-cardiology",
      "resource": {
        "resourceType": "ClinicalImpression",
        "id": "clinical-impression-cardiology",
        "status": "completed",
        "subject": {
          "reference": "Patient/patient-marfan-001"
        },
        "encounter": {
          "reference": "Encounter/encounter-cardiology"
        },
        "effectiveDateTime": "2024-12-15",
        "date": "2024-12-15",
        "assessor": {
          "reference": "Practitioner/example"
        },
        "summary": "19-jähriger Patient mit klinischen Zeichen eines Marfan-Syndroms. Aortenwurzeldilatation (48mm), AKI Grad II, MKI Grad I. Skelettale Merkmale (Hochwuchs 2,13m, Beinlängendifferenz) und ophthalmologische Manifestation (Z.n. Katarakt-OP) unterstützen die Diagnose.",
        "problem": [
          {
            "reference": "Condition/condition-marfan-suspected"
          },
          {
            "reference": "Condition/condition-marfan-clinical"
          },
          {
            "reference": "Condition/condition-marfan-genetic"
          }
        ],
        "finding": [
          {
            "itemReference": {
              "reference": "Condition/condition-marfan-clinical"
            }
          },
          {
            "itemReference": {
              "reference": "Condition/condition-marfan-genetic"
            }
          },
          {
            "itemCodeableConcept": {
              "coding": [
                {
                  "code": "249364003",
                  "system": "http://snomed.info/sct",
                  "display": "Aortic root dilatation"
                }
              ]
            },
            "itemReference": {
              "reference": "Observation/symptom-aortic-root"
            }
          },
          {
            "itemCodeableConcept": {
              "coding": [
                {
                  "code": "60573004",
                  "system": "http://snomed.info/sct",
                  "display": "Aortic valve regurgitation"
                }
              ]
            },
            "itemReference": {
              "reference": "Observation/symptom-aortic-regurg"
            }
          },
          {
            "itemCodeableConcept": {
              "coding": [
                {
                  "code": "48724000",
                  "system": "http://snomed.info/sct",
                  "display": "Mitral valve regurgitation"
                }
              ]
            },
            "itemReference": {
              "reference": "Observation/symptom-mitral-regurg"
            }
          },
          {
            "itemCodeableConcept": {
              "coding": [
                {
                  "code": "249620005",
                  "system": "http://snomed.info/sct",
                  "display": "Tall stature"
                }
              ]
            },
            "itemReference": {
              "reference": "Observation/observation-height-001"
            }
          },
          {
            "itemCodeableConcept": {
              "coding": [
                {
                  "code": "271902003",
                  "system": "http://snomed.info/sct",
                  "display": "Leg length discrepancy"
                }
              ]
            },
            "itemReference": {
              "reference": "Observation/observation-leg-asymmetry"
            }
          }
        ],
        "investigation": [
          {
            "code": {
              "text": "Echokardiographie"
            },
            "item": [
              {
                "reference": "Observation/observation-echo-aortic"
              },
              {
                "reference": "Observation/observation-echo-av"
              },
              {
                "reference": "Observation/observation-echo-mv"
              }
            ]
          }
        ],
        "prognosisCodeableConcept": [
          {
            "coding": [
              {
                "code": "170969009",
                "system": "http://snomed.info/sct",
                "display": "Prognosis guarded"
              }
            ]
          }
        ],
        "note": [
          {
            "text": "Marfan-Syndrom klinisch gesichert. OP-Indikation für Aortenwurzelersatz gestellt. Medikamentöse Therapie mit Losartan eingeleitet."
          },
          {
            "text": "Regelmäßige kardiologische Kontrollen alle 6 Monate empfohlen. Genetische Beratung für Familienplanung empfohlen."
          }
        ]
      },
      "request": {
        "method": "POST",
        "url": "ClinicalImpression"
      }
    },
    {
      "fullUrl": "urn:uuid:encounter-ophthalmology",
      "resource": {
        "resourceType": "Encounter",
        "id": "encounter-ophthalmology",
        "status": "finished",
        "class": {
          "code": "AMB",
          "system": "http://terminology.hl7.org/CodeSystem/v3-ActCode",
          "display": "ambulatory"
        },
        "type": [
          {
            "coding": [
              {
                "code": "36228007",
                "system": "http://snomed.info/sct",
                "display": "Ophthalmic examination and evaluation"
              }
            ]
          }
        ],
        "subject": {
          "reference": "Patient/patient-marfan-001"
        },
        "period": {
          "start": "2024-10-15",
          "end": "2024-10-15"
        },
        "diagnosis": [
          {
            "condition": {
              "reference": "Condition/condition-cataract"
            },
            "use": {
              "coding": [
                {
                  "code": "AD",
                  "system": "http://terminology.hl7.org/CodeSystem/diagnosis-role",
                  "display": "Admission diagnosis"
                }
              ]
            }
          }
        ]
      },
      "request": {
        "method": "POST",
        "url": "Encounter"
      }
    },
    {
      "fullUrl": "urn:uuid:encounter-cataract-surgery",
      "resource": {
        "resourceType": "Encounter",
        "id": "encounter-cataract-surgery",
        "status": "finished",
        "class": {
          "code": "SS",
          "system": "http://terminology.hl7.org/CodeSystem/v3-ActCode",
          "display": "short stay"
        },
        "type": [
          {
            "coding": [
              {
                "code": "305408004",
                "system": "http://snomed.info/sct",
                "display": "Admission to surgical department"
              }
            ]
          }
        ],
        "subject": {
          "reference": "Patient/patient-marfan-001"
        },
        "period": {
          "start": "2024-11-12T07:00:00Z",
          "end": "2024-11-12T15:00:00Z"
        },
        "diagnosis": [
          {
            "condition": {
              "reference": "Condition/condition-cataract"
            },
            "use": {
              "coding": [
                {
                  "code": "CC",
                  "system": "http://terminology.hl7.org/CodeSystem/diagnosis-role",
                  "display": "Chief complaint"
                }
              ]
            }
          }
        ]
      },
      "request": {
        "method": "POST",
        "url": "Encounter"
      }
    },
    {
      "fullUrl": "urn:uuid:encounter-cardiology",
      "resource": {
        "resourceType": "Encounter",
        "id": "encounter-cardiology",
        "status": "finished",
        "class": {
          "code": "AMB",
          "system": "http://terminology.hl7.org/CodeSystem/v3-ActCode",
          "display": "ambulatory"
        },
        "type": [
          {
            "coding": [
              {
                "code": "185316007",
                "system": "http://snomed.info/sct",
                "display": "Cardiology consultation"
              }
            ]
          }
        ],
        "subject": {
          "reference": "Patient/patient-marfan-001"
        },
        "period": {
          "start": "2024-12-15",
          "end": "2024-12-15"
        },
        "diagnosis": [
          {
            "condition": {
              "reference": "Condition/condition-marfan-clinical"
            },
            "use": {
              "coding": [
                {
                  "code": "AD",
                  "system": "http://terminology.hl7.org/CodeSystem/diagnosis-role",
                  "display": "Admission diagnosis"
                }
              ]
            }
          }
        ],
        "reasonCode": [
          {
            "coding": [
              {
                "code": "29857009",
                "system": "http://snomed.info/sct",
                "display": "Chest pain"
              }
            ],
            "text": "Thoraxschmerzen bei V.a. Marfan-Syndrom"
          }
        ]
      },
      "request": {
        "method": "POST",
        "url": "Encounter"
      }
    },
    {
      "fullUrl": "urn:uuid:encounter-surgery-planned",
      "resource": {
        "resourceType": "Encounter",
        "id": "encounter-surgery-planned",
        "status": "planned",
        "class": {
          "code": "IMP",
          "system": "http://terminology.hl7.org/CodeSystem/v3-ActCode",
          "display": "inpatient encounter"
        },
        "type": [
          {
            "coding": [
              {
                "code": "305565006",
                "system": "http://snomed.info/sct",
                "display": "Admission to cardiac surgery department"
              }
            ]
          }
        ],
        "subject": {
          "reference": "Patient/patient-marfan-001"
        },
        "period": {
          "start": "2025-03-15"
        },
        "diagnosis": [
          {
            "condition": {
              "reference": "Condition/condition-marfan-clinical"
            },
            "use": {
              "coding": [
                {
                  "code": "CC",
                  "system": "http://terminology.hl7.org/CodeSystem/diagnosis-role",
                  "display": "Chief complaint"
                }
              ]
            }
          }
        ],
        "reasonCode": [
          {
            "text": "Elektive Aortenwurzelersatz-Operation bei Marfan-Syndrom"
          }
        ]
      },
      "request": {
        "method": "POST",
        "url": "Encounter"
      }
    }
  ]
}
